aX,aY,aZ,gX,gY,gZ
-2.125,0.744,0.471,86.304,-1.587,-50.964
-2.124,0.447,0.583,98.022,-10.559,-93.506
-2.032,0.157,0.670,75.073,-22.888,-115.112
-1.837,-0.055,0.825,35.278,-36.682,-119.019
-1.674,-0.232,0.948,9.399,-48.950,-111.816
-1.491,-0.379,1.078,11.658,-50.171,-99.365
-1.344,-0.379,1.167,37.720,-41.077,-84.839
-1.223,-0.385,1.221,71.838,-28.137,-75.317
-0.996,-0.384,1.283,95.215,-15.259,-67.993
-0.870,-0.373,1.278,98.267,-4.517,-54.810
-0.749,-0.325,1.219,83.679,7.263,-35.400
-0.670,-0.104,1.115,65.735,17.517,-14.343
-0.687,0.065,1.032,52.368,19.226,-2.380
-0.679,0.125,1.052,30.640,10.437,2.502
-0.643,0.131,1.101,6.226,-1.343,7.874
-0.617,0.127,1.108,-5.493,-5.554,15.137
-0.534,0.141,1.138,-0.916,-5.432,20.447
-0.464,0.219,1.205,9.705,-3.479,22.339
-0.430,0.304,1.206,14.038,3.174,21.912
-0.402,0.318,1.119,6.104,9.277,16.479
-0.390,0.255,1.026,-10.193,12.634,9.216
-0.347,0.137,0.936,-29.419,13.123,4.395
-0.300,0.034,0.901,-42.725,10.742,2.808
-0.250,-0.031,0.903,-44.556,5.432,4.883
-0.206,-0.036,0.938,-33.081,1.526,9.399
-0.187,0.039,0.990,-13.062,0.488,14.526
-0.178,0.174,1.025,5.676,1.160,17.273
-0.205,0.218,1.076,19.897,2.991,14.954
-0.166,0.172,1.138,22.400,5.676,10.071
-0.163,0.148,1.151,12.573,9.155,8.362
-0.154,0.106,1.102,0.916,13.794,7.141
-0.111,0.082,1.002,-1.953,18.799,5.798
-0.122,0.068,0.898,6.836,23.804,6.042
-0.119,0.057,0.830,16.846,25.635,6.470
-0.110,0.074,0.807,22.217,23.682,7.690
-0.108,0.081,0.832,25.696,19.409,7.568
-0.107,0.091,0.856,27.344,14.709,6.165
-0.110,0.099,0.854,25.879,11.719,4.395
-0.125,0.132,0.836,21.240,9.216,2.380
-0.141,0.100,0.826,14.587,5.859,-0.793
-0.112,0.051,0.839,5.615,2.075,-2.563
-0.119,0.023,0.901,-1.709,-0.305,-1.221
-0.123,0.035,0.979,-5.615,-1.587,0.122
-0.133,0.045,1.006,-5.554,-0.610,-0.305
-0.137,0.036,0.981,-1.709,2.563,-0.854
-0.138,0.022,0.945,3.845,4.761,-0.488
-0.115,-0.014,0.929,9.399,5.249,0.671
-0.094,-0.009,0.904,13.916,5.981,3.479
-0.088,0.014,0.908,18.188,6.042,5.798
-0.099,0.068,0.897,20.264,5.310,6.836
-0.113,0.078,0.874,17.151,4.639,5.554
-0.132,0.097,0.851,9.583,2.747,5.066
-0.145,0.122,0.844,3.479,0.854,5.005
-0.164,0.118,0.877,1.221,-0.183,4.089
-0.169,0.138,0.912,1.709,-1.099,3.052
-0.153,0.153,0.932,3.052,-0.305,1.770
-0.160,0.161,0.941,4.028,0.000,0.244
-0.164,0.140,0.946,3.601,-0.732,-1.465
-0.163,0.089,0.953,1.038,-1.892,-2.747
-0.149,0.050,0.965,-1.526,-1.770,-2.441
-0.152,0.042,0.962,-1.831,-0.610,-0.610
-0.166,0.054,0.950,1.465,0.366,1.221
-0.174,0.081,0.931,6.653,0.854,2.502
-0.172,0.102,0.927,10.498,0.549,2.808
-0.158,0.097,0.933,10.559,-0.671,1.587
-0.148,0.076,0.958,7.996,-2.869,0.122
-0.136,0.074,0.987,5.066,-4.333,-1.343
-0.137,0.077,0.984,3.052,-4.333,-2.747
-0.138,0.072,0.959,2.197,-2.930,-3.235
-0.147,0.048,0.945,1.160,-2.441,-3.540
-0.141,0.021,0.947,-1.465,-2.808,-3.479
-0.135,0.007,0.953,-3.601,-3.235,-3.052
-0.132,0.004,0.980,-3.052,-3.235,-2.075
-0.143,0.042,0.997,0.183,-2.930,-0.610
-0.153,0.050,0.987,3.784,-2.075,-0.732
-0.151,0.051,0.978,4.333,-1.709,-1.282
-0.156,0.038,0.964,2.563,-1.892,-1.160
-0.149,0.011,0.955,1.953,-2.319,-0.732
-0.151,0.010,0.965,3.845,-2.991,0.061
-0.154,0.032,0.978,6.958,-2.869,0.732
-0.151,0.032,0.992,8.301,-1.953,-0.061
-0.148,0.031,0.993,6.592,-0.366,-0.244
-0.143,0.046,0.978,4.150,1.404,0.488
-0.155,0.043,0.955,4.272,2.808,0.122
-0.146,0.019,0.945,7.202,3.235,-1.221
-0.141,0.002,0.944,10.498,2.136,-1.038
-0.137,-0.016,0.936,10.498,1.526,-0.366
-0.134,-0.029,0.936,7.263,0.122,0.793
-0.135,-0.010,0.951,3.784,-2.075,2.747
-0.142,0.016,0.972,2.930,-2.930,3.784
-0.153,0.048,0.992,5.005,-2.563,3.601
-0.155,0.049,1.001,6.104,-1.526,2.014
-0.155,0.031,0.995,4.578,0.061,1.221
-0.156,0.016,0.980,2.747,1.038,1.709
-0.146,0.015,0.970,2.136,1.160,2.136
-0.153,0.032,0.964,2.319,0.793,2.258
-0.158,0.045,0.959,1.831,0.366,2.197
-0.159,0.045,0.962,1.038,0.000,2.014
-0.161,0.042,0.972,-0.427,-0.427,1.892
-0.165,0.025,0.976,-1.892,-0.244,2.014
-0.167,0.005,0.973,-1.953,-0.061,2.319
-0.159,0.003,0.968,-0.854,-0.366,3.174
-0.149,0.025,0.971,2.563,-0.854,4.395
-0.151,0.058,0.986,7.935,-0.488,4.761
-0.162,0.095,0.990,12.634,0.854,4.700
-0.170,0.110,0.982,13.916,1.587,3.235
-0.169,0.092,0.958,9.705,1.526,0.854
-0.165,0.056,0.930,2.563,0.488,-1.343
-0.167,0.042,0.912,-2.808,-1.282,-2.380
-0.150,0.020,0.926,-5.249,-4.333,-2.869
-0.131,-0.002,0.962,-4.883,-7.019,-3.113
-0.123,-0.028,1.004,-3.906,-8.362,-2.747
-0.124,-0.037,1.044,-4.944,-7.935,-0.977
-0.135,-0.018,1.059,-6.165,-5.188,1.770
-0.145,-0.005,1.045,-3.479,-1.038,3.296
-0.157,0.007,1.014,2.380,3.174,4.028
-0.165,0.027,0.983,7.507,6.042,4.822
-0.174,0.061,0.942,10.925,6.958,5.554
-0.175,0.083,0.898,11.841,6.226,5.005

1.484,0.006,1.101,-13.245,-12.573,62.744
1.590,0.067,1.093,-5.981,-14.160,73.547
1.684,0.112,1.033,-2.197,-16.968,83.069
1.751,0.052,0.994,-0.488,-18.860,92.346
1.787,0.009,0.966,-6.409,-20.569,105.957
1.763,-0.003,0.962,-18.738,-20.935,121.643
1.718,0.059,0.911,-27.649,-17.212,134.399
1.580,0.142,0.833,-23.865,-12.146,140.381
1.478,0.225,0.736,-11.230,-7.568,139.526
1.269,0.364,0.558,0.000,-6.104,136.353
1.022,0.569,0.344,7.263,-8.484,127.625
0.776,0.679,0.221,10.498,-20.386,109.253
0.583,0.719,0.139,2.075,-39.795,85.083
0.411,0.676,0.057,-20.264,-59.082,63.721
0.194,0.623,-0.015,-45.410,-80.811,45.593
-0.016,0.500,0.034,-59.021,-101.929,28.748
-0.202,0.364,0.167,-58.472,-117.249,15.503
-0.321,0.264,0.306,-45.837,-123.840,5.981
-0.462,0.193,0.444,-19.104,-117.554,0.793
-0.594,0.099,0.598,15.869,-99.060,-2.319
-0.746,0.129,0.690,48.157,-75.317,-3.296
-0.977,0.249,0.690,69.519,-51.331,-3.357
-1.222,0.284,0.606,75.623,-32.654,-7.019
-1.422,0.271,0.577,46.875,-27.100,-7.874
-1.461,0.180,0.694,-11.414,-30.640,-1.953
-1.648,0.066,0.804,-62.622,-29.907,14.954
-1.936,0.198,0.829,-72.876,-26.123,26.794
-2.118,0.313,0.814,-26.184,-29.419,2.502
-1.863,0.067,0.961,54.810,-31.250,-49.377
-1.649,-0.118,1.074,109.192,-26.611,-76.233
-1.602,-0.151,1.090,117.676,-19.409,-71.960
-1.568,-0.090,1.051,102.417,-10.376,-64.331
-1.384,-0.176,1.021,87.646,-7.202,-68.115
-1.121,-0.260,0.998,82.825,-5.859,-70.435
-0.985,-0.126,0.933,90.576,2.563,-63.171
-0.989,-0.044,0.849,104.614,14.404,-59.998
-0.942,-0.150,0.816,106.323,19.043,-64.941
-0.843,-0.301,0.791,81.604,17.944,-63.049
-0.794,-0.394,0.796,43.152,11.780,-51.025
-0.660,-0.427,0.868,14.526,1.465,-38.269
-0.496,-0.454,0.965,8.057,-7.935,-28.015
-0.439,-0.388,1.067,20.569,-10.864,-14.465
-0.442,-0.247,1.147,34.912,-7.385,-0.793
-0.450,-0.104,1.185,37.842,-1.831,8.850
-0.462,0.007,1.173,28.137,2.319,15.503
-0.455,0.107,1.144,13.733,4.822,18.433
-0.421,0.188,1.114,-0.610,4.639,17.883
-0.381,0.160,1.090,-12.573,1.770,15.137
-0.364,0.124,1.069,-22.644,-2.686,13.977
-0.376,0.096,1.056,-30.396,-6.897,15.625
-0.333,0.076,1.074,-31.372,-9.827,17.395
-0.323,0.186,1.114,-23.987,-10.071,20.630
-0.331,0.290,1.129,-9.338,-7.263,20.691
-0.306,0.316,1.144,5.798,-2.502,15.564
-0.270,0.308,1.169,11.963,1.953,11.414
-0.281,0.272,1.139,6.897,6.104,9.888
-0.283,0.185,1.070,-2.380,8.484,8.484
-0.262,0.112,1.026,-6.775,7.996,7.019
-0.225,0.133,1.016,-3.174,6.470,6.775
-0.208,0.178,1.008,8.423,6.653,5.737
-0.203,0.191,0.999,23.621,8.972,2.869
-0.190,0.175,0.991,33.020,10.376,-0.122
-0.164,0.158,0.994,32.227,10.620,-1.831
-0.155,0.134,0.993,24.048,9.888,-2.686
-0.151,0.096,0.981,13.855,8.606,-3.540
-0.144,0.041,0.951,5.676,6.897,-4.700
-0.138,0.000,0.923,1.038,5.249,-4.211
-0.136,0.010,0.906,0.793,3.479,-2.502
-0.137,0.028,0.921,3.357,2.686,-0.488
-0.136,0.066,0.940,5.920,2.319,1.099
-0.137,0.092,0.949,8.911,3.052,1.648
-0.124,0.117,0.954,11.169,3.967,0.977
-0.127,0.094,0.950,10.742,4.517,-1.099
-0.119,0.051,0.933,5.676,4.517,-2.258
-0.132,0.011,0.920,-1.892,2.930,-1.770
-0.115,-0.008,0.929,-7.263,0.183,-0.977
-0.108,0.040,0.965,-6.348,-1.404,0.671
-0.119,0.104,0.983,0.305,-0.732,0.916
-0.115,0.089,0.980,9.583,2.136,-1.892
-0.111,0.068,0.974,14.709,5.188,-2.441
-0.102,0.061,0.967,12.939,6.653,-0.977
-0.107,0.040,0.959,8.972,6.958,-0.122
-0.098,0.001,0.962,6.226,6.104,0.122
-0.096,0.014,0.954,4.028,5.249,1.892
-0.108,0.045,0.926,4.395,6.042,3.540
-0.120,0.060,0.895,6.836,6.958,3.540
-0.131,0.063,0.889,7.019,6.287,3.540
-0.130,0.066,0.909,5.127,4.028,3.967
-0.132,0.082,0.933,2.136,2.136,4.517
-0.135,0.100,0.950,0.916,0.854,3.906
-0.130,0.098,0.952,2.502,0.305,2.136
-0.130,0.094,0.944,3.845,-0.122,0.793
-0.133,0.099,0.926,4.395,-0.549,-0.061
-0.134,0.096,0.922,4.395,-0.732,-0.977
-0.137,0.080,0.923,3.967,-0.916,-1.953
-0.133,0.042,0.973,3.601,-0.854,-2.380
-0.114,0.035,0.992,1.343,-0.854,-1.892
-0.109,0.049,1.003,-0.793,0.183,-0.244
-0.122,0.088,1.005,0.916,2.197,0.793
-0.140,0.106,0.976,5.066,5.127,-0.305
-0.147,0.104,0.942,9.705,7.507,-1.892
-0.152,0.097,0.924,11.780,6.714,-2.625
-0.152,0.076,0.926,10.742,4.272,-2.930
-0.148,0.046,0.939,9.460,1.343,-2.930
-0.130,0.020,0.960,7.935,-0.427,-2.747
-0.114,0.002,0.975,7.446,-1.526,-2.014
-0.114,0.005,0.976,7.446,-1.221,-0.732
-0.121,0.007,0.966,7.446,-0.183,0.366
-0.128,0.017,0.961,6.104,0.244,1.526
-0.125,0.032,0.974,3.906,0.122,2.502
-0.133,0.041,0.992,1.038,-0.061,2.319
-0.134,0.035,1.002,-2.197,-0.427,1.587
-0.136,0.025,1.005,-5.737,-0.977,0.916
-0.129,0.017,0.996,-8.362,-1.526,0.671
-0.125,0.001,0.983,-9.521,-1.892,1.221
-0.116,0.013,0.977,-8.728,-2.319,2.625
-0.123,0.046,0.979,-4.883,-2.136,3.662
-0.126,0.070,0.989,-0.122,-1.221,3.357
-0.118,0.090,0.999,1.770,-0.671,2.136

1.486,-0.261,1.120,-2.075,-30.151,60.852
1.543,-0.260,1.037,1.526,-20.203,79.346
1.544,-0.214,0.929,5.066,-10.742,98.389
1.533,-0.143,0.818,8.972,-7.263,112.732
1.552,-0.105,0.761,12.939,-10.010,120.850
1.527,-0.033,0.690,10.010,-18.433,126.892
1.400,0.081,0.609,2.991,-26.672,131.348
1.202,0.203,0.504,-2.686,-37.720,128.723
1.054,0.249,0.510,-9.460,-55.786,118.347
1.010,0.232,0.671,-20.386,-73.364,103.455
0.957,0.187,0.804,-35.522,-79.834,90.637
0.865,0.077,0.864,-48.889,-77.454,79.468
0.722,-0.054,0.855,-59.021,-74.158,73.486
0.607,-0.181,0.863,-63.416,-68.665,74.951
0.396,-0.142,0.753,-52.063,-59.204,80.261
0.094,-0.047,0.601,-22.705,-52.124,82.153
-0.151,0.115,0.462,10.925,-52.124,73.669
-0.346,0.282,0.377,36.499,-63.049,55.603
-0.419,0.340,0.465,40.039,-80.933,31.738
-0.418,0.297,0.645,20.081,-96.130,9.277
-0.444,0.126,0.923,-3.174,-95.215,-4.089
-0.443,-0.135,1.214,-13.794,-70.801,-6.104
-0.452,-0.261,1.319,-10.742,-23.560,7.263
-0.671,-0.230,1.149,2.380,35.095,38.391
-0.897,-0.112,0.872,19.287,81.238,76.904
-1.640,0.361,0.338,22.339,83.801,105.713
-1.913,0.635,0.151,34.119,61.035,80.872
-1.811,0.506,0.291,59.387,37.476,29.358
-1.859,0.378,0.522,69.580,14.709,-1.343
-1.906,0.337,0.759,61.035,-0.671,-13.184
-1.954,0.246,0.895,49.438,-1.831,-21.912
-2.024,0.134,0.939,47.852,-1.099,-33.997
-2.002,0.025,1.054,52.490,-2.869,-52.551
-1.826,-0.174,1.154,48.706,-9.094,-76.416
-1.525,-0.470,1.280,40.955,-14.343,-93.506
-1.216,-0.589,1.300,40.405,-9.583,-94.360
-0.983,-0.610,1.189,57.800,4.944,-84.473
-0.856,-0.615,1.041,89.417,28.015,-70.007
-0.789,-0.563,0.899,110.718,40.955,-54.626
-0.702,-0.514,0.855,106.506,40.955,-38.757
-0.619,-0.429,0.899,75.378,28.015,-24.353
-0.551,-0.398,0.979,31.189,11.108,-10.986
-0.483,-0.324,1.036,-6.287,-0.305,3.601
-0.478,-0.148,1.083,-25.085,-5.676,16.907
-0.489,-0.043,1.121,-21.667,-7.324,21.179
-0.450,-0.012,1.187,-11.780,-6.958,19.409
-0.404,0.061,1.272,-8.545,-5.005,20.813
-0.391,0.180,1.313,-13.428,-2.197,22.400
-0.343,0.190,1.284,-19.714,2.319,18.494
-0.308,0.196,1.166,-22.644,9.033,15.869
-0.350,0.182,1.036,-20.813,12.878,15.442
-0.339,0.201,0.919,-17.883,11.597,12.329
-0.310,0.185,0.905,-14.465,7.812,10.559
-0.307,0.203,0.922,-12.512,0.916,8.423
-0.260,0.164,0.989,-10.437,-5.188,4.944
-0.237,0.135,1.053,-9.949,-9.521,2.991
-0.211,0.093,1.139,-10.803,-11.047,2.747
-0.177,0.097,1.167,-13.428,-7.446,4.456
-0.184,0.126,1.144,-12.878,-0.916,6.104
-0.186,0.133,1.108,-5.310,6.714,5.066
-0.181,0.172,1.068,7.202,13.245,2.930
-0.180,0.209,1.017,22.095,18.005,0.122
-0.158,0.198,0.968,33.508,20.142,-4.333
-0.156,0.151,0.908,34.607,19.104,-8.179
-0.133,0.098,0.848,27.405,15.198,-10.620
-0.100,0.023,0.832,19.043,11.292,-11.780
-0.090,-0.010,0.818,12.512,7.141,-11.780
-0.077,-0.011,0.826,10.132,2.808,-11.597
-0.076,0.002,0.843,11.780,-0.244,-12.085
-0.084,0.011,0.848,12.695,-1.892,-13.000
-0.089,-0.012,0.860,7.996,-3.174,-14.221
-0.091,-0.033,0.868,-3.113,-6.165,-13.794
-0.086,-0.073,0.891,-12.512,-9.827,-12.817
-0.074,-0.131,0.927,-15.747,-12.573,-11.414
-0.051,-0.148,0.969,-12.939,-13.245,-7.996
-0.054,-0.113,0.992,-6.104,-11.658,-4.272
-0.066,-0.071,1.000,3.174,-7.812,-2.136
-0.082,-0.015,0.994,12.390,-3.479,-0.977
-0.104,0.007,0.967,17.517,0.427,-1.160
-0.119,-0.006,0.938,16.724,2.258,-1.770
-0.101,-0.030,0.942,13.123,1.526,-1.892
-0.089,-0.043,0.964,8.789,-0.427,-1.892
-0.075,-0.088,0.996,4.578,-2.197,-2.319
-0.062,-0.098,0.996,0.916,-2.563,-0.610
-0.083,-0.059,0.965,0.244,-1.526,2.625
-0.100,-0.015,0.934,3.784,0.061,4.456
-0.114,0.022,0.927,8.606,0.061,3.845
-0.120,0.046,0.956,11.169,-0.977,1.770
-0.124,0.068,1.000,8.789,-2.747,-1.526
-0.116,0.068,1.024,3.235,-4.517,-4.944
-0.098,0.036,1.032,-1.404,-4.517,-8.850
-0.096,0.002,1.016,-4.639,-2.686,-9.949
-0.106,0.014,0.980,-6.104,-0.671,-7.996
-0.122,0.051,0.944,0.732,0.732,-5.981
-0.127,0.056,0.955,15.015,1.404,-6.165
-0.121,0.052,0.992,26.917,1.648,-6.653
-0.118,0.069,1.012,29.724,1.831,-6.409
-0.114,0.056,1.010,26.672,2.563,-7.507
-0.126,0.005,0.978,20.996,3.906,-8.301
-0.123,-0.020,0.943,14.282,2.930,-8.240
-0.120,-0.020,0.933,8.789,2.014,-6.958
-0.115,-0.019,0.936,5.859,0.977,-6.348
-0.116,-0.010,0.939,4.639,0.183,-6.104
-0.133,-0.027,0.949,3.601,-0.427,-5.737
-0.120,-0.051,0.968,3.052,-1.038,-5.188
-0.123,-0.045,0.978,2.441,-0.977,-4.028
-0.128,-0.056,0.985,3.052,-0.122,-3.235
-0.121,-0.068,0.986,3.723,0.854,-2.991
-0.115,-0.076,0.983,4.395,2.502,-1.770
-0.113,-0.068,0.967,6.226,4.639,-0.183
-0.111,-0.045,0.928,8.057,6.348,0.305
-0.118,-0.047,0.895,9.033,5.798,-0.244
-0.128,-0.058,0.875,6.470,2.441,-0.244
-0.132,-0.065,0.872,0.183,-1.892,0.916
-0.129,-0.069,0.894,-5.493,-5.493,2.380
-0.130,-0.043,0.930,-5.737,-7.568,3.723
-0.134,-0.008,0.979,-1.587,-7.568,3.845
-0.134,-0.000,1.009,2.258,-5.676,2.747
-0.140,-0.005,1.012,2.991,-2.930,2.136

-2.033,0.122,0.426,-3.357,6.958,-35.645
-1.971,-0.030,0.603,37.476,-5.066,-65.063
-2.006,-0.099,0.790,43.518,-23.376,-73.059
-2.035,-0.104,0.912,26.062,-36.743,-69.519
-1.990,-0.097,0.981,9.216,-44.006,-69.031
-1.791,-0.199,1.065,0.427,-49.683,-74.341
-1.458,-0.319,1.157,-3.418,-57.800,-75.623
-1.162,-0.267,1.269,7.996,-56.152,-63.049
-1.035,-0.170,1.302,41.992,-42.847,-49.805
-0.914,-0.075,1.348,83.923,-22.034,-45.166
-0.849,-0.047,1.315,106.750,-2.686,-43.213
-0.743,-0.107,1.205,102.539,10.559,-38.269
-0.635,-0.102,1.068,77.881,16.296,-24.963
-0.566,-0.088,0.936,50.415,15.686,-9.888
-0.501,-0.047,0.869,32.898,14.221,0.366
-0.496,-0.006,0.855,24.231,9.033,6.836
-0.467,0.015,0.896,16.846,2.075,10.925
-0.419,0.093,0.947,6.897,-5.005,14.465
-0.377,0.185,0.995,-2.625,-10.071,15.320
-0.347,0.224,1.030,-8.057,-12.451,13.611
-0.324,0.194,1.061,-11.414,-12.390,11.108
-0.299,0.157,1.097,-17.700,-11.902,11.353
-0.279,0.151,1.118,-25.696,-10.864,13.977
-0.266,0.150,1.123,-29.236,-7.324,17.029
-0.261,0.183,1.111,-26.367,-1.648,19.531
-0.269,0.223,1.087,-18.738,2.808,19.531
-0.266,0.209,1.067,-10.681,6.409,17.639
-0.255,0.190,1.053,-5.859,8.362,16.235
-0.249,0.174,1.041,-3.052,9.216,16.235
-0.226,0.164,1.018,0.305,9.460,15.930
-0.204,0.171,0.981,5.981,10.437,15.686
-0.203,0.172,0.939,14.465,12.817,15.869
-0.199,0.176,0.922,21.484,13.611,15.930
-0.179,0.218,0.927,23.865,12.390,15.198
-0.173,0.263,0.942,21.606,9.827,12.512
-0.150,0.270,0.971,18.005,6.897,6.592
-0.122,0.255,0.973,14.465,5.737,0.549
-0.118,0.197,0.949,12.817,7.141,-3.113
-0.114,0.160,0.913,11.475,8.118,-4.395
-0.123,0.142,0.894,10.010,8.118,-4.150
-0.117,0.117,0.901,9.399,6.775,-4.700
-0.101,0.093,0.902,7.629,5.371,-5.310
-0.087,0.063,0.901,4.517,3.906,-5.676
-0.070,0.032,0.906,2.319,2.258,-5.188
-0.062,0.021,0.913,1.282,1.465,-3.967
-0.071,0.034,0.921,2.441,1.892,-2.563
-0.078,0.068,0.923,5.371,2.930,-0.854
-0.087,0.077,0.935,9.888,4.028,-0.244
-0.084,0.077,0.949,13.123,4.456,-0.061
-0.099,0.075,0.958,12.573,4.333,0.732
-0.101,0.073,0.971,10.010,3.967,1.587
-0.104,0.089,0.977,7.568,3.479,1.404
-0.100,0.107,0.973,6.836,3.662,-0.305
-0.099,0.078,0.953,6.897,4.883,-2.502
-0.101,0.044,0.919,5.859,4.761,-3.113
-0.103,0.014,0.884,4.395,3.601,-2.808
-0.089,-0.002,0.878,3.662,2.197,-1.404
-0.082,-0.004,0.895,3.662,-0.305,-0.244
-0.066,0.022,0.928,3.418,-2.441,0.610
-0.068,0.062,0.953,4.150,-3.113,0.732
-0.091,0.071,0.968,5.066,-1.587,0.061
-0.102,0.063,0.971,4.761,-0.061,-0.549
-0.105,0.055,0.970,2.441,0.366,-0.305
-0.109,0.055,0.966,0.305,0.366,0.549
-0.117,0.049,0.965,0.244,-0.061,0.732
-0.119,0.035,0.957,2.258,-0.671,0.610
-0.123,0.029,0.944,5.493,-1.099,1.221
-0.133,0.051,0.955,9.521,-1.648,2.319
-0.137,0.078,0.972,12.939,-2.258,2.319
-0.135,0.086,0.983,14.038,-2.380,1.282
-0.142,0.078,0.987,12.329,-1.770,0.610
-0.151,0.064,0.982,9.338,-0.793,0.854
-0.161,0.056,0.976,6.226,-0.854,1.099
-0.164,0.059,0.987,4.822,-1.831,0.732
-0.171,0.055,1.005,4.395,-2.563,0.488
-0.180,0.059,1.017,4.150,-2.136,0.427
-0.195,0.064,1.017,4.333,-1.282,0.977
-0.211,0.065,1.011,5.981,0.244,1.343
-0.216,0.063,1.001,7.812,1.587,1.587
-0.217,0.068,1.002,9.766,2.136,1.953
-0.201,0.066,1.014,10.742,2.625,2.441
-0.191,0.079,1.014,9.216,2.747,3.235
-0.194,0.099,1.015,6.653,2.197,4.395
-0.194,0.109,1.019,4.150,1.587,4.395
-0.190,0.124,1.028,1.648,0.854,3.113
-0.178,0.104,1.042,0.549,0.916,0.854
-0.166,0.085,1.056,1.160,2.808,0.183
-0.164,0.078,1.054,2.319,5.737,0.427
-0.162,0.079,1.038,4.028,7.629,0.671
-0.161,0.074,1.027,6.531,8.301,0.000
-0.168,0.065,1.023,9.277,7.935,-0.671
-0.158,0.044,1.017,11.047,6.714,-1.282
-0.162,0.032,1.013,11.475,5.920,-1.221
-0.161,0.008,1.019,10.803,5.310,-0.732
-0.156,-0.007,1.019,9.094,4.883,-0.732
-0.155,-0.027,1.028,6.714,5.066,-1.221
-0.151,-0.047,1.037,4.150,5.371,-1.709
-0.150,-0.058,1.046,2.502,5.920,-1.221
-0.156,-0.045,1.036,3.662,8.118,0.488
-0.172,-0.044,1.016,7.751,10.803,1.953
-0.195,-0.044,1.008,12.878,12.146,2.441
-0.199,-0.063,1.015,16.479,13.184,2.991
-0.186,-0.054,1.019,15.930,14.038,4.700
-0.188,-0.039,1.019,13.062,14.893,6.592
-0.201,-0.031,1.005,9.277,15.686,7.629
-0.214,-0.014,1.000,5.859,15.442,7.385
-0.230,-0.005,1.000,2.014,14.465,4.944
-0.245,-0.005,1.006,-1.587,14.099,1.648
-0.275,0.000,1.003,-5.920,14.404,-1.648
-0.287,-0.041,0.989,-8.423,14.954,-3.784
-0.274,-0.070,0.985,-8.057,14.465,-3.357
-0.238,-0.046,0.983,-4.761,13.855,-0.549
-0.199,-0.062,1.001,1.282,15.991,3.052
-0.199,-0.048,1.006,5.798,18.005,8.362
-0.212,0.035,0.994,7.202,18.555,14.160
-0.244,0.116,0.976,9.705,19.165,15.259
-0.282,0.157,0.952,15.137,20.264,10.986
-0.302,0.145,0.931,19.287,20.569,3.784
-0.272,0.102,0.930,20.569,19.287,-1.831

1.222,-0.198,1.031,-9.705,-26.794,89.722
1.241,-0.114,1.010,-12.756,-25.146,100.098
1.273,-0.078,0.998,-8.179,-22.217,105.042
1.302,-0.038,0.952,-0.427,-15.930,107.544
1.271,-0.008,0.874,5.432,-8.606,110.779
1.204,0.045,0.741,5.981,-4.639,116.516
1.138,0.087,0.615,4.883,-6.653,120.605
1.091,0.108,0.545,3.723,-16.296,121.521
1.074,0.148,0.500,0.549,-31.555,120.056
1.005,0.177,0.454,-3.662,-49.194,116.333
0.908,0.200,0.481,-6.042,-68.115,109.375
0.844,0.223,0.498,-3.662,-83.008,98.083
0.766,0.194,0.602,4.395,-91.553,85.205
0.725,0.215,0.693,10.010,-93.384,72.937
0.620,0.272,0.768,10.376,-84.839,60.852
0.405,0.347,0.772,3.540,-68.909,46.204
0.094,0.384,0.690,-14.709,-50.598,29.480
-0.222,0.376,0.524,-43.091,-39.124,15.259
-0.520,0.298,0.409,-69.885,-38.818,5.493
-0.612,0.121,0.464,-79.590,-46.326,1.770
-0.643,-0.017,0.592,-61.584,-47.791,9.399
-0.739,0.013,0.663,-8.484,-29.724,23.865
-0.929,0.026,0.750,76.965,7.263,36.316
-1.307,0.148,0.612,159.607,47.180,49.744
-1.887,0.419,0.441,199.158,72.510,64.697
-2.454,0.557,0.367,189.026,74.829,59.631
-2.925,0.522,0.415,130.371,47.241,27.283
-3.051,0.470,0.652,28.137,0.488,-29.541
-2.958,0.130,1.027,-82.642,-52.490,-105.469
-2.618,-0.512,1.412,-164.062,-98.755,-168.762
-1.968,-1.039,1.788,-190.430,-124.817,-193.542
-1.370,-1.114,1.871,-150.146,-120.911,-183.838
-0.921,-1.161,1.747,-57.251,-81.970,-163.696
-0.681,-1.223,1.581,43.396,-22.888,-136.230
-0.480,-1.226,1.367,107.666,24.048,-101.563
-0.511,-1.065,1.054,129.883,57.251,-56.641
-0.554,-0.875,0.810,123.230,64.209,-10.193
-0.560,-0.431,0.692,101.440,46.570,27.710
-0.637,0.132,0.711,76.904,22.644,55.359
-0.715,0.606,0.800,55.969,2.197,60.974
-0.720,0.794,0.909,35.278,-12.329,45.105
-0.671,0.799,0.984,9.888,-22.278,24.170
-0.601,0.733,1.001,-12.329,-28.564,8.484
-0.529,0.599,1.038,-19.409,-28.198,-1.526
-0.438,0.493,1.082,-15.442,-26.489,-9.094
-0.362,0.435,1.112,-12.085,-25.818,-15.259
-0.331,0.313,1.117,-18.677,-22.400,-20.630
-0.318,0.159,1.111,-32.532,-18.616,-21.729
-0.302,0.041,1.143,-46.387,-16.113,-16.663
-0.290,0.005,1.120,-52.124,-15.991,-9.766
-0.277,0.032,1.151,-42.725,-12.573,-3.845
-0.285,0.097,1.177,-18.433,-6.714,1.404
-0.305,0.161,1.172,8.179,-0.671,2.441
-0.321,0.191,1.151,27.344,6.897,2.686
-0.322,0.204,1.103,36.011,13.428,2.930
-0.291,0.173,1.061,37.781,17.883,1.709
-0.250,0.120,1.002,34.729,19.836,0.000
-0.217,0.069,0.969,29.480,19.470,-0.916
-0.191,0.077,0.935,23.621,16.418,-0.732
-0.177,0.075,0.898,18.188,12.756,-1.953
-0.178,0.059,0.883,12.695,9.033,-3.052
-0.171,0.043,0.896,7.507,4.456,-3.174
-0.154,0.049,0.941,3.906,0.732,-2.991
-0.148,0.067,1.000,2.197,-1.709,-2.869
-0.137,0.061,1.037,2.808,-2.502,-3.784
-0.130,0.034,1.046,4.150,-0.549,-5.554
-0.125,0.003,1.048,5.371,1.953,-5.615
-0.122,0.001,1.043,4.456,4.395,-4.578
-0.134,-0.006,1.017,1.892,7.080,-3.357
-0.139,-0.016,0.988,1.099,8.667,-2.808
-0.142,-0.030,0.952,3.906,9.216,-1.709
-0.136,-0.031,0.926,9.460,8.972,-0.122
-0.108,-0.013,0.918,16.418,8.667,1.587
-0.115,0.027,0.925,22.949,8.606,2.991
-0.116,0.070,0.938,27.954,9.399,3.235
-0.126,0.088,0.933,28.564,10.498,2.075
-0.128,0.087,0.923,24.414,10.498,0.061
-0.132,0.077,0.904,16.724,8.118,-2.075
-0.123,0.040,0.898,8.911,4.944,-4.028
-0.115,-0.004,0.896,1.770,1.587,-5.371
-0.103,-0.018,0.902,-4.700,-0.732,-4.700
-0.103,-0.005,0.910,-7.507,-2.991,-3.601
-0.104,0.005,0.926,-7.263,-3.174,-3.235
-0.120,0.032,0.929,-5.737,-3.418,-3.052
-0.129,0.035,0.954,-2.686,-3.662,-2.991
-0.119,0.024,0.978,0.366,-3.052,-3.296
-0.111,0.018,0.986,1.221,-1.221,-3.357
-0.104,0.000,0.978,1.160,0.854,-3.052
-0.102,-0.013,0.961,1.465,1.770,-2.502
-0.105,-0.010,0.940,2.075,1.282,-2.014
-0.105,-0.012,0.923,2.380,0.793,-1.648
-0.109,-0.018,0.924,2.502,0.122,-0.793
-0.115,-0.002,0.930,1.587,-0.610,0.305
-0.123,0.020,0.943,2.136,-1.404,0.854
-0.133,0.023,0.958,4.272,-1.526,0.427
-0.126,0.019,0.965,6.653,-1.465,-0.122
-0.116,0.026,0.970,7.202,-0.610,0.244
-0.130,0.025,0.954,6.409,0.427,0.854
-0.133,0.005,0.932,4.517,0.977,0.488
-0.127,0.000,0.918,3.113,0.610,0.732
-0.132,0.002,0.928,2.991,-0.732,1.038
-0.136,-0.003,0.944,2.808,-2.625,0.854
-0.141,-0.013,0.956,-0.061,-4.089,1.099
-0.152,-0.014,0.959,-4.456,-5.127,1.709
-0.169,-0.002,0.959,-6.287,-5.981,2.502
-0.192,0.031,0.950,-4.639,-5.615,2.258
-0.212,0.043,0.947,-0.916,-5.249,0.732
-0.215,0.041,0.950,1.587,-6.165,-1.099
-0.211,0.044,0.956,1.953,-7.202,-1.770
-0.213,0.037,0.961,1.099,-7.874,-1.770
-0.209,0.045,0.964,0.061,-8.423,-1.160
-0.229,0.107,0.948,-0.183,-9.277,0.427
-0.264,0.172,0.931,4.578,-9.583,0.549
-0.297,0.200,0.930,12.024,-10.620,-1.770
-0.289,0.203,0.943,15.930,-13.245,-4.089
-0.307,0.199,0.974,13.489,-17.334,-5.188
-0.327,0.170,1.001,7.446,-21.545,-5.798
-0.337,0.123,1.029,1.770,-24.353,-6.287
-0.358,0.076,1.057,-0.671,-26.245,-6.226

-2.611,1.075,-0.081,223.083,115.417,57.007
-2.987,1.006,-0.028,241.577,78.491,-24.414
-3.059,0.688,0.218,191.589,22.461,-120.544
-2.980,0.067,0.725,82.397,-40.405,-204.651
-2.579,-0.630,1.323,-48.340,-90.942,-255.920
-1.906,-1.113,1.607,-142.029,-112.122,-266.724
-1.373,-1.461,1.515,-146.606,-84.473,-242.126
-1.020,-1.719,1.191,-71.838,-23.132,-200.867
-0.727,-1.901,0.911,37.842,24.597,-160.156
-0.541,-2.072,0.796,115.601,40.588,-115.417
-0.472,-1.838,0.721,122.192,31.555,-52.856
-0.547,-1.096,0.735,79.834,16.724,21.362
-0.831,0.041,0.749,34.546,7.263,81.238
-0.988,0.892,0.860,12.512,-3.906,97.473
-0.945,1.232,1.061,6.836,-18.311,74.707
-0.885,1.278,1.183,6.348,-25.330,41.016
-0.796,1.115,1.188,5.127,-21.118,12.573
-0.699,0.858,1.135,-3.113,-15.747,-8.789
-0.554,0.555,1.072,-19.592,-12.634,-23.499
-0.462,0.244,0.999,-39.429,-11.169,-32.532
-0.406,-0.050,0.964,-54.688,-12.817,-35.278
-0.355,-0.253,0.962,-61.829,-15.991,-29.236
-0.346,-0.262,1.003,-57.556,-19.714,-15.869
-0.364,-0.139,1.036,-40.771,-24.109,-2.991
-0.368,0.006,1.077,-16.785,-23.865,4.883
-0.396,0.086,1.161,6.653,-20.569,10.498
-0.406,0.160,1.220,18.433,-18.555,12.390
-0.392,0.205,1.240,18.921,-14.648,12.756
-0.378,0.228,1.216,17.395,-7.874,12.451
-0.339,0.241,1.168,20.020,-0.977,10.864
-0.321,0.217,1.110,27.832,6.042,7.629
-0.285,0.173,1.059,34.851,11.353,3.418
-0.266,0.114,0.994,32.898,12.390,0.916
-0.244,0.068,0.942,22.217,9.583,0.122
-0.216,0.032,0.928,9.338,4.517,0.305
-0.190,0.042,0.951,-0.244,-0.305,1.526
-0.194,0.105,0.979,-3.479,-3.174,3.052
-0.215,0.135,1.004,-1.038,-3.357,0.916
-0.228,0.101,1.017,1.526,-2.686,-2.380
-0.207,0.066,1.011,2.136,-1.099,-3.235
-0.203,0.050,0.988,2.747,0.122,-3.113
-0.162,0.009,0.991,4.822,0.854,-3.296
-0.151,-0.037,1.005,6.104,1.648,-2.930
-0.158,-0.046,1.001,4.456,3.662,-1.160
-0.163,-0.038,0.973,3.052,6.165,0.427
-0.170,-0.031,0.928,3.296,8.606,0.916
-0.185,-0.019,0.881,6.104,10.315,1.587
-0.195,-0.026,0.857,10.315,11.108,1.343
-0.175,-0.013,0.874,15.076,9.644,1.404
-0.162,-0.007,0.891,17.944,7.629,1.831
-0.167,-0.006,0.888,17.822,6.226,2.380
-0.179,0.007,0.871,15.747,5.005,2.991
-0.200,0.024,0.860,11.902,2.869,2.869
-0.208,0.011,0.873,6.348,1.099,2.197
-0.207,0.004,0.904,-0.549,-1.038,2.380
-0.202,0.040,0.937,-5.737,-3.174,3.906
-0.198,0.084,0.951,-5.371,-2.747,3.967
-0.212,0.098,0.939,-1.282,-0.977,2.991
-0.205,0.081,0.926,1.099,-0.610,1.465
-0.193,0.062,0.922,1.038,-1.648,0.671
-0.196,0.033,0.931,0.488,-2.869,0.366
-0.195,0.017,0.947,0.916,-3.296,0.977
-0.194,0.033,0.966,2.625,-3.113,2.014
-0.185,0.068,0.975,5.737,-1.831,2.441
-0.196,0.086,0.980,7.507,-0.427,1.770
-0.201,0.099,0.979,6.226,0.183,0.488
-0.215,0.101,0.979,3.357,0.366,-0.610
-0.218,0.077,0.980,0.793,0.061,-1.953
-0.210,0.044,0.984,-0.183,-0.793,-2.747
-0.207,0.019,0.990,0.549,-1.038,-2.502
-0.211,0.010,0.984,-0.244,-1.282,-2.014
-0.218,0.001,0.987,-2.808,-2.258,-1.465
-0.225,-0.019,0.999,-5.859,-3.479,-0.366
-0.224,-0.027,1.013,-7.263,-3.296,1.404
-0.228,-0.016,1.028,-4.639,-0.977,3.906
-0.246,-0.006,1.021,1.648,2.869,6.226
-0.265,0.019,0.999,7.812,7.080,8.362
-0.291,0.058,0.962,13.733,10.559,9.705
-0.306,0.071,0.946,18.677,11.780,9.399
-0.324,0.104,0.942,20.508,11.414,8.423
-0.338,0.105,0.950,20.264,10.559,6.348
-0.343,0.083,0.961,18.250,9.155,3.723
-0.354,0.053,0.954,14.832,8.728,2.258
-0.369,0.019,0.948,10.742,7.751,1.648
-0.385,-0.012,0.956,6.226,4.883,2.014
-0.394,-0.017,0.969,1.709,0.549,3.052
-0.405,-0.010,0.963,-3.235,-3.967,3.967
-0.432,-0.050,1.013,-7.751,-8.118,4.456
-0.441,-0.081,1.040,-13.855,-13.672,4.822
-0.447,-0.108,1.081,-21.301,-18.555,6.714
-0.464,-0.108,1.097,-26.733,-19.897,9.033
-0.480,-0.087,1.099,-26.001,-17.090,10.010
-0.496,-0.053,1.104,-18.005,-12.207,9.949
-0.526,0.013,1.116,-5.432,-7.996,8.179
-0.542,0.066,1.109,10.986,-3.784,4.883
-0.559,0.068,1.115,25.635,3.052,1.282
-0.623,-0.010,1.095,27.832,12.329,0.549
-0.627,-0.094,1.089,18.982,19.653,5.798
-0.624,-0.059,1.085,4.700,26.794,14.832
-0.668,-0.010,1.031,-8.484,36.011,20.630
-0.723,0.021,0.975,-14.465,44.006,20.264
-0.747,0.021,0.914,-13.977,46.631,15.442
-0.767,0.009,0.875,-10.864,46.326,11.475
-0.763,0.016,0.855,-8.118,44.128,8.911
-0.771,-0.015,0.866,-4.456,40.527,7.202
-0.726,-0.016,0.883,-0.671,37.781,8.362
-0.715,0.007,0.882,4.944,38.635,11.658
-0.722,0.076,0.847,14.832,39.490,13.916
-0.747,0.089,0.788,31.067,37.903,10.864
-0.639,-0.038,0.800,51.453,37.231,7.324
-0.547,-0.076,0.831,61.646,26.794,9.705
-0.518,-0.041,0.849,54.504,8.728,19.836
-0.504,0.052,0.912,39.001,-2.380,29.358
-0.482,0.146,0.949,22.766,-8.240,31.311
-0.458,0.166,0.993,12.695,-9.888,26.001
-0.399,0.154,1.032,6.287,-7.874,17.395
-0.304,0.123,1.071,0.549,-3.113,10.132
-0.252,0.089,1.041,-4.578,3.296,6.836
-0.228,0.070,1.043,-8.362,13.062,6.287

-2.532,0.885,-0.041,132.812,41.321,-38.330
-2.655,0.561,0.229,131.042,2.441,-112.183
-2.757,0.143,0.638,58.838,-46.387,-163.269
-2.655,-0.407,1.233,-35.034,-88.867,-194.031
-2.137,-0.981,1.813,-94.604,-110.779,-203.186
-1.586,-1.086,2.028,-89.417,-97.229,-183.899
-1.196,-1.125,1.944,-16.418,-53.406,-156.860
-0.988,-1.085,1.694,75.317,-5.798,-132.141
-0.834,-1.010,1.391,123.535,20.813,-102.356
-0.673,-0.848,1.132,117.798,27.710,-69.031
-0.621,-0.805,0.989,83.496,20.203,-40.894
-0.557,-0.829,1.006,39.246,7.324,-14.648
-0.580,-0.679,1.082,0.916,-3.296,12.146
-0.565,-0.468,1.229,-20.508,-10.437,32.715
-0.483,-0.177,1.308,-26.184,-10.376,45.105
-0.460,0.159,1.278,-18.372,-2.258,51.575
-0.487,0.314,1.171,-5.371,9.827,49.438
-0.497,0.392,1.039,0.000,16.724,42.175
-0.487,0.383,0.923,-2.686,14.526,33.142
-0.432,0.282,0.910,-6.897,7.385,21.851
-0.344,0.176,0.965,-12.268,-2.136,12.207
-0.287,0.104,1.024,-18.127,-10.559,7.812
-0.266,0.081,1.059,-16.602,-14.709,6.409
-0.276,0.038,1.076,-6.958,-14.404,6.714
-0.250,0.044,1.121,3.906,-11.169,9.705
-0.245,0.115,1.102,11.536,-6.714,13.672
-0.231,0.137,1.086,17.944,-1.160,15.015
-0.222,0.193,1.074,20.020,3.174,14.771
-0.236,0.253,1.061,18.555,5.798,12.634
-0.240,0.264,1.019,15.625,8.179,7.202
-0.222,0.190,0.972,12.695,8.362,0.488
-0.187,0.094,0.943,9.460,6.958,-2.808
-0.140,0.025,0.955,8.728,5.188,-2.808
-0.109,-0.011,0.987,9.155,5.127,-0.854
-0.114,0.013,0.969,6.348,6.653,2.747
-0.123,0.075,0.926,3.723,8.728,5.676
-0.150,0.121,0.878,2.563,9.094,6.042
-0.169,0.128,0.861,2.258,6.409,4.517
-0.149,0.094,0.874,3.174,2.441,1.709
-0.137,0.040,0.909,5.371,-0.427,-0.610
-0.099,0.000,0.935,6.653,-2.441,-1.404
-0.094,0.005,0.941,6.836,-2.869,-1.282
-0.114,0.018,0.911,5.432,-1.892,-0.854
-0.122,0.026,0.885,3.418,-1.587,-1.099
-0.119,0.032,0.909,3.723,-2.869,-1.343
-0.109,0.009,0.975,5.554,-2.625,-2.075
-0.104,-0.003,1.011,6.165,-1.404,-2.502
-0.101,-0.040,1.020,7.751,0.183,-2.747
-0.095,-0.056,0.985,10.742,2.380,-2.258
-0.087,-0.053,0.925,12.817,3.967,-0.916
-0.100,-0.039,0.898,11.475,3.174,0.916
-0.107,-0.021,0.902,7.996,1.099,1.831
-0.109,-0.015,0.927,2.625,-0.244,2.380
-0.108,-0.001,0.956,-2.258,-1.770,2.136
-0.105,-0.000,0.970,-5.798,-2.686,1.587
-0.106,-0.014,0.965,-6.958,-2.625,1.160
-0.110,-0.023,0.959,-5.310,-2.808,1.282
-0.100,-0.022,0.963,-1.770,-2.563,1.343
-0.106,-0.025,0.969,2.747,-2.197,1.709
-0.098,-0.003,0.976,7.507,-2.686,2.869
-0.096,0.000,1.011,10.315,-2.930,3.174
-0.093,-0.012,1.042,8.179,-2.075,3.235
-0.109,-0.022,1.034,2.441,-0.549,4.395
-0.120,-0.034,1.010,-1.831,0.977,5.676
-0.119,-0.042,0.986,-2.563,1.709,6.226
-0.118,-0.024,0.977,0.244,2.808,7.202
-0.126,0.043,0.962,5.188,4.578,8.423
-0.142,0.123,0.947,10.681,5.371,7.629
-0.154,0.134,0.947,14.709,4.395,3.296
-0.150,0.114,0.935,12.634,2.136,-0.854
-0.148,0.056,0.931,6.042,-0.916,-3.052
-0.136,0.002,0.942,-1.831,-3.540,-3.357
-0.141,-0.021,0.964,-6.775,-5.127,-3.052
-0.141,-0.014,0.980,-8.484,-4.700,-2.380
-0.150,0.005,0.988,-7.263,-3.479,-1.648
-0.157,0.027,0.996,-2.930,-1.587,-1.648
-0.174,0.048,0.995,3.174,0.366,-2.075
-0.194,0.062,0.990,6.714,2.075,-2.869
-0.205,0.062,0.990,6.226,3.357,-3.845
-0.210,0.036,0.990,3.967,4.517,-5.554
-0.228,0.004,0.978,2.014,5.859,-6.958
-0.254,-0.021,0.952,0.610,6.714,-7.629
-0.276,-0.048,0.915,-1.770,5.371,-8.179
-0.294,-0.042,0.880,-5.066,1.038,-7.996
-0.321,0.032,0.863,-5.371,-5.005,-7.446
-0.351,0.072,0.867,-0.366,-11.841,-10.010
-0.377,0.073,0.894,5.737,-19.409,-13.855
-0.414,0.082,0.899,8.057,-27.710,-16.602
-0.460,0.025,1.007,6.836,-33.081,-17.395
-0.483,-0.004,1.102,-1.648,-38.147,-18.677
-0.457,-0.064,1.222,-15.991,-38.757,-18.433
-0.481,-0.083,1.295,-32.349,-35.095,-16.602
-0.543,-0.138,1.326,-43.701,-32.471,-15.137
-0.553,-0.239,1.323,-45.593,-28.076,-12.207
-0.595,-0.276,1.271,-43.274,-21.301,-2.686
-0.669,-0.229,1.200,-36.743,-13.123,10.620
-0.727,-0.144,1.144,-25.635,-6.531,19.470
-0.790,-0.051,1.097,-15.076,-2.563,21.362
-0.823,-0.039,1.158,-5.981,2.502,18.738
-0.851,-0.007,1.233,-6.531,10.010,16.113
-0.912,-0.010,1.233,-18.005,20.752,17.456
-0.978,0.011,1.191,-31.982,31.494,20.569
-1.021,0.023,1.116,-40.894,41.138,22.095
-1.059,0.004,1.000,-40.283,51.086,23.437
-1.059,0.030,0.943,-26.611,55.664,23.865
-1.004,0.083,0.836,-1.648,56.335,21.973
-0.984,0.122,0.801,29.907,56.213,21.729
-0.908,0.159,0.789,55.725,51.819,21.118
-0.815,0.132,0.828,67.017,43.457,21.057
-0.737,0.140,0.882,60.791,34.790,26.184
-0.683,0.202,0.910,45.593,27.527,30.884
-0.641,0.225,0.946,32.593,26.917,30.884
-0.552,0.191,0.975,24.414,33.508,26.367
-0.472,0.105,0.982,18.982,41.992,21.423
-0.408,0.124,0.946,12.390,49.316,20.081
-0.345,0.150,0.910,9.949,54.138,19.409
-0.248,0.132,0.875,14.099,59.326,16.846
-0.159,0.116,0.806,17.883,61.279,15.137
-0.098,0.111,0.738,17.395,56.641,15.869

1.348,0.002,1.146,-32.471,2.625,9.033
1.383,-0.002,1.065,-20.386,0.610,16.907
1.395,-0.001,0.987,-6.042,-6.165,24.170
1.466,-0.050,1.028,3.418,-20.081,32.104
1.591,-0.097,1.112,2.075,-34.363,41.321
1.684,-0.157,1.138,-11.475,-43.091,54.688
1.778,-0.193,1.156,-28.870,-44.983,71.350
1.788,-0.109,1.009,-41.443,-39.917,89.905
1.708,-0.018,0.831,-38.086,-34.241,104.614
1.652,0.117,0.620,-23.499,-38.818,108.521
1.604,0.175,0.480,-9.460,-53.101,105.225
1.551,0.312,0.369,-10.376,-74.402,97.717
1.415,0.358,0.339,-23.437,-96.069,87.585
1.293,0.411,0.329,-35.706,-109.131,75.745
1.165,0.526,0.307,-39.063,-116.333,68.115
0.954,0.702,0.220,-18.799,-114.868,61.279
0.649,0.759,0.207,29.663,-107.849,49.561
0.316,0.778,0.293,80.688,-91.919,38.147
-0.065,0.776,0.419,111.023,-57.800,32.471
-0.763,0.878,0.245,118.347,-9.949,24.048
-1.578,0.724,-0.090,107.483,36.438,-1.892
-1.976,0.462,-0.400,46.997,52.368,-37.781
-2.125,0.126,-0.390,-41.748,32.898,-69.519
-2.652,0.324,-0.523,-101.013,11.902,-84.167
-3.191,0.083,-0.350,-65.918,-10.742,-115.417
-3.326,-0.361,0.093,17.761,-44.495,-159.851
-3.232,-0.633,0.638,42.053,-77.515,-174.377
-2.970,-0.679,1.148,-4.211,-106.140,-166.077
-2.388,-0.914,1.640,-64.575,-122.314,-157.166
-1.736,-1.109,1.943,-92.712,-111.023,-135.315
-1.286,-1.124,1.952,-61.218,-69.580,-92.834
-1.088,-0.828,1.661,24.109,-13.428,-47.058
-1.070,-0.467,1.322,124.817,34.363,-10.376
-1.056,-0.150,1.040,184.082,59.326,15.381
-1.001,0.138,0.863,178.772,55.298,32.227
-0.911,0.307,0.792,133.118,38.086,37.109
-0.803,0.325,0.776,79.834,20.325,31.860
-0.730,0.232,0.806,36.316,6.287,24.536
-0.672,0.089,0.901,8.423,-2.441,19.653
-0.624,0.019,0.971,-4.883,-7.690,20.020
-0.562,0.036,1.054,-5.859,-7.690,23.254
-0.545,0.135,1.065,-1.099,-4.944,25.391
-0.502,0.160,1.060,3.540,-3.418,22.888
-0.470,0.186,1.039,3.357,-4.150,19.531
-0.454,0.171,1.015,-1.099,-5.676,16.235
-0.445,0.130,1.001,-6.958,-6.653,13.123
-0.464,0.083,1.025,-10.986,-7.446,11.536
-0.464,-0.031,1.085,-11.719,-7.324,11.169
-0.366,-0.059,1.137,-7.446,-6.836,12.573
-0.340,-0.019,1.169,6.775,-4.578,15.320
-0.333,0.057,1.151,24.658,-1.648,14.893
-0.328,0.029,1.100,31.555,0.854,11.536
-0.306,-0.002,1.032,21.240,0.732,10.681
-0.292,-0.019,1.001,6.836,-0.244,12.695
-0.285,-0.018,1.018,-0.793,-1.831,14.282
-0.277,0.011,1.055,0.793,-1.648,15.381
-0.252,0.079,1.070,8.362,-0.916,15.503
-0.262,0.103,1.100,15.076,1.160,13.550
-0.261,0.100,1.076,12.573,3.296,9.583
-0.251,0.033,1.037,2.075,4.700,5.493
-0.229,-0.077,1.008,-7.874,5.859,2.563
-0.196,-0.134,1.003,-12.817,6.958,2.747
-0.189,-0.122,0.981,-9.888,8.850,5.371
-0.189,-0.110,0.945,0.610,10.864,6.470
-0.201,-0.066,0.898,8.728,10.925,8.301
-0.219,-0.024,0.877,9.094,7.874,9.521
-0.206,-0.007,0.893,3.967,3.296,9.216
-0.204,-0.000,0.917,-0.793,0.366,8.728
-0.193,-0.015,0.949,-1.099,-1.282,7.141
-0.192,0.003,0.966,2.075,-2.136,5.859
-0.196,0.010,0.956,5.737,-1.282,5.188
-0.205,0.013,0.940,6.104,-0.488,4.883
-0.219,0.025,0.921,1.953,-1.221,5.310
-0.221,0.013,0.917,-0.671,-2.991,4.700
-0.224,-0.006,0.927,0.732,-3.906,4.333
-0.223,-0.022,0.936,4.944,-4.578,4.517
-0.213,-0.034,0.954,9.888,-4.395,5.188
-0.211,-0.011,0.959,13.062,-3.906,6.714
-0.233,0.045,0.948,14.526,-3.174,7.568
-0.227,0.071,0.945,15.198,-2.808,5.798
-0.223,0.069,0.957,12.451,-3.113,3.113
-0.215,0.051,0.962,7.446,-3.662,0.854
-0.212,0.003,0.973,3.296,-3.235,-0.305
-0.213,-0.029,0.976,-0.244,-2.502,0.427
-0.211,-0.042,0.973,-1.831,-1.953,1.648
-0.216,-0.027,0.968,-0.671,-1.282,2.869
-0.222,0.020,0.959,2.625,-1.099,3.357
-0.236,0.044,0.959,5.859,-0.793,2.441
-0.226,0.036,0.977,6.042,-0.916,0.916
-0.226,0.018,0.990,2.441,-0.977,0.000
-0.219,-0.014,0.999,-1.099,-0.122,-0.549
-0.214,-0.045,0.991,-2.869,1.160,-0.366
-0.213,-0.054,0.970,-2.991,2.686,0.977
-0.225,-0.029,0.944,-0.244,3.479,2.808
-0.222,0.018,0.919,4.761,3.052,2.869
-0.237,0.032,0.902,8.179,2.197,1.343
-0.230,0.028,0.919,7.263,0.244,-0.183
-0.225,0.019,0.943,4.028,-1.892,-1.221
-0.228,-0.012,0.958,-0.122,-2.258,-2.014
-0.219,-0.052,0.968,-2.869,-2.686,-2.991
-0.205,-0.067,0.970,-3.540,-2.380,-2.686
-0.209,-0.057,0.957,-2.136,-1.343,-1.526
-0.217,-0.033,0.943,1.099,-0.183,-0.366
-0.232,-0.009,0.931,3.906,0.122,0.244
-0.226,-0.007,0.922,4.333,0.000,0.183
-0.226,-0.011,0.927,3.906,-0.732,0.427
-0.222,-0.020,0.940,4.150,-1.465,0.610
-0.216,-0.027,0.950,5.371,-1.587,0.366
-0.211,-0.020,0.946,6.958,-1.282,0.305
-0.224,-0.008,0.933,7.996,-1.343,0.488
-0.229,0.003,0.936,7.080,-2.380,0.244
-0.232,0.010,0.942,3.235,-3.662,-0.061
-0.236,-0.007,0.947,-0.854,-4.639,-0.549
-0.231,-0.034,0.967,-3.235,-5.737,-0.916
-0.233,-0.040,0.988,-3.357,-5.798,-0.488
-0.242,-0.036,0.995,-0.671,-3.967,0.122
-0.264,-0.003,0.972,1.770,-1.526,0.305
-0.295,0.017,0.942,3.113,0.488,-0.366
-0.326,0.009,0.921,2.991,0.854,-1.892

-1.788,0.608,0.487,90.515,-25.940,-102.478
-1.932,0.334,0.591,22.461,-8.484,-123.962
-2.207,0.058,0.534,-44.739,7.507,-127.563
-2.497,-0.198,0.375,-99.915,15.381,-116.272
-2.860,-0.039,0.277,-133.667,5.859,-96.313
-2.904,-0.078,0.449,-125.732,-31.738,-103.027
-2.562,-0.427,0.951,-81.604,-69.397,-129.272
-2.040,-0.724,1.440,-46.631,-89.661,-135.010
-1.577,-0.753,1.737,-19.409,-77.881,-111.694
-1.314,-0.667,1.736,16.296,-39.429,-77.759
-1.183,-0.574,1.522,67.322,6.531,-49.072
-1.168,-0.446,1.167,112.000,41.748,-24.902
-1.026,-0.306,0.883,128.967,55.725,-5.005
-0.932,-0.011,0.692,118.347,50.659,12.024
-0.892,0.186,0.625,98.206,34.790,18.616
-0.727,0.213,0.672,79.956,19.592,13.977
-0.669,0.174,0.756,60.547,8.789,12.695
-0.615,0.156,0.822,40.222,5.127,13.916
-0.596,0.182,0.838,21.545,4.639,14.648
-0.548,0.164,0.893,10.071,4.822,13.550
-0.526,0.194,0.893,4.700,6.165,13.123
-0.510,0.205,0.871,5.493,6.226,12.512
-0.489,0.190,0.898,8.728,1.831,9.644
-0.451,0.207,0.976,10.986,-4.028,6.042
-0.416,0.162,1.054,12.024,-8.301,0.732
-0.385,0.046,1.127,10.925,-7.874,-3.174
-0.368,-0.055,1.130,4.639,-5.249,-2.075
-0.356,-0.145,1.085,0.854,-2.075,2.991
-0.313,-0.119,1.058,8.118,0.916,9.949
-0.303,-0.035,1.033,26.489,2.686,15.808
-0.245,0.023,1.054,45.410,4.517,17.883
-0.254,0.177,1.063,53.345,4.456,20.203
-0.235,0.219,1.052,52.063,5.371,17.151
-0.213,0.167,1.018,41.138,7.263,12.085
-0.205,0.123,0.986,23.499,7.690,9.216
-0.184,0.045,0.975,8.423,6.470,6.042
-0.170,0.014,0.973,1.526,3.174,2.991
-0.162,0.002,0.993,1.526,0.610,0.427
-0.183,0.020,1.004,5.249,-0.916,-0.305
-0.194,-0.010,1.004,11.230,-1.038,-1.160
-0.199,-0.033,1.007,14.404,-1.648,-0.854
-0.186,-0.058,1.021,12.939,-2.319,-0.427
-0.163,-0.085,1.059,8.911,-1.770,0.122
-0.148,-0.080,1.069,2.075,0.671,1.465
-0.144,-0.056,1.051,-2.319,2.991,2.319
-0.178,-0.036,1.013,-3.906,5.188,2.930
-0.202,-0.024,0.956,-2.869,6.165,3.479
-0.210,-0.043,0.923,-1.770,5.310,3.479
-0.222,-0.076,0.930,-2.686,1.892,4.150
-0.205,-0.108,0.969,-4.883,-0.549,4.822
-0.178,-0.109,0.992,-5.554,-2.258,6.287
-0.178,-0.089,1.000,-1.709,-2.441,7.629
-0.179,-0.054,0.997,5.676,-0.366,8.667
-0.188,-0.020,0.993,10.803,2.441,9.399
-0.177,-0.011,0.970,10.742,5.371,10.681
-0.190,0.006,0.933,5.493,6.592,12.390
-0.192,0.025,0.903,0.366,5.920,13.062
-0.192,0.037,0.886,-1.831,3.052,12.695
-0.198,0.049,0.889,-1.221,0.366,11.597
-0.209,0.088,0.908,-1.038,-1.831,10.498
-0.199,0.099,0.945,-1.221,-3.052,8.240
-0.206,0.102,0.990,-1.953,-2.869,6.104
-0.220,0.107,1.000,-2.869,-1.282,4.089
-0.210,0.061,0.983,-1.892,0.610,1.465
-0.203,0.043,0.937,-0.061,1.221,1.160
-0.216,0.044,0.888,1.404,0.488,1.709
-0.219,0.024,0.872,1.526,-1.892,1.038
-0.213,0.036,0.888,0.305,-4.822,0.916
-0.197,0.010,0.943,1.221,-6.226,0.305
-0.181,0.006,0.990,3.479,-4.944,0.671
-0.193,0.019,0.998,5.371,-2.075,2.869
-0.207,0.024,0.962,7.690,2.014,4.517
-0.235,0.062,0.916,10.315,4.456,6.042
-0.230,0.099,0.892,13.306,4.028,5.493
-0.237,0.111,0.895,15.564,1.587,3.052
-0.233,0.142,0.921,14.526,-0.977,0.183
-0.228,0.125,0.944,11.230,-3.357,-3.113
-0.223,0.066,0.954,6.409,-4.700,-5.859
-0.214,0.014,0.975,1.221,-5.493,-6.714
-0.236,-0.032,0.983,-1.282,-4.700,-5.310
-0.234,-0.037,1.002,1.465,-2.625,-3.418
-0.233,-0.017,1.021,7.935,-0.671,-1.648
-0.233,0.035,1.021,15.259,0.977,-0.061
-0.258,0.089,1.000,18.799,2.380,-0.305
-0.271,0.084,0.967,16.113,2.808,-2.380
-0.265,0.044,0.931,7.629,2.136,-3.540
-0.276,0.002,0.908,-0.793,0.793,-3.601
-0.297,-0.034,0.911,-4.150,-1.587,-3.296
-0.283,-0.063,0.925,-3.235,-4.211,-3.174
-0.268,-0.052,0.947,0.000,-6.042,-2.014
-0.285,-0.019,0.958,5.371,-6.653,0.366
-0.292,-0.008,0.970,10.864,-5.432,2.502
-0.313,0.013,0.983,13.306,-3.784,4.333
-0.330,0.029,0.991,13.428,-2.930,5.066
-0.345,0.026,1.002,13.123,-2.136,4.150
-0.373,0.035,1.010,12.268,-0.793,3.174
-0.392,0.028,1.015,10.925,0.305,1.221
-0.402,-0.018,1.021,8.057,0.977,-1.282
-0.429,-0.068,1.010,0.610,1.465,-0.732
-0.443,-0.092,1.003,-6.042,0.977,1.953
-0.464,-0.084,1.006,-5.127,0.854,5.066
-0.473,-0.095,1.032,3.723,1.343,6.653
-0.466,-0.095,1.045,12.512,2.930,8.606
-0.478,-0.039,1.031,19.531,5.432,12.024
-0.517,-0.019,0.995,26.550,8.179,13.245
-0.535,-0.037,0.962,32.837,8.850,11.841
-0.552,-0.035,0.943,34.546,7.629,12.329
-0.550,-0.028,0.935,34.729,3.235,13.672
-0.546,0.024,0.961,36.011,-2.258,15.503
-0.541,-0.003,0.969,39.185,-4.578,16.052
-0.542,-0.069,0.941,39.246,-7.507,18.311
-0.588,-0.085,0.931,33.936,-12.817,23.071
-0.628,-0.111,0.984,27.283,-17.578,26.184
-0.669,-0.129,1.075,18.372,-18.005,25.940
-0.656,-0.152,1.136,4.883,-13.184,22.949
-0.633,-0.217,1.128,-9.277,-4.211,19.897
-0.607,-0.177,1.065,-18.311,6.165,19.958
-0.642,-0.128,0.941,-13.428,13.733,19.592
-0.691,-0.154,0.858,5.005,17.639,15.259

-1.795,-0.125,1.233,78.857,-26.672,-88.440
-1.817,-0.120,1.258,100.586,-0.732,-79.529
-1.796,-0.177,1.237,88.989,14.648,-71.228
-1.847,-0.129,1.163,41.321,19.592,-58.472
-1.891,-0.028,1.003,-10.803,16.296,-53.101
-1.748,-0.206,0.983,-30.884,5.798,-62.439
-1.571,-0.419,1.022,-18.982,-5.859,-68.665
-1.366,-0.526,1.103,13.428,-14.038,-64.758
-1.172,-0.571,1.204,54.199,-15.503,-53.955
-1.055,-0.478,1.253,85.571,-11.475,-39.368
-0.982,-0.363,1.260,97.229,-4.822,-27.222
-0.878,-0.299,1.243,88.379,0.366,-19.653
-0.829,-0.215,1.239,65.613,3.174,-12.329
-0.782,-0.127,1.172,39.368,5.676,-7.874
-0.680,-0.143,1.127,23.315,8.728,-7.996
-0.603,-0.113,1.049,18.127,10.742,-5.798
-0.532,-0.062,0.971,25.574,11.780,-3.723
-0.493,-0.018,0.924,40.161,10.010,-3.906
-0.442,0.008,0.936,46.631,4.517,-4.700
-0.392,0.030,0.953,39.063,-3.357,-3.540
-0.375,0.032,0.987,26.550,-10.376,-1.892
-0.351,0.015,1.046,15.625,-13.672,-1.404
-0.317,-0.026,1.103,4.578,-14.038,-2.319
-0.302,-0.056,1.152,-9.460,-12.573,-1.526
-0.304,-0.011,1.178,-24.475,-12.756,0.549
-0.274,0.011,1.187,-29.541,-12.573,0.122
-0.270,0.020,1.173,-19.958,-10.559,-1.282
-0.265,0.031,1.160,-2.625,-9.094,-2.441
-0.264,0.043,1.174,10.864,-8.545,-3.296
-0.282,0.040,1.178,13.611,-7.629,-4.395
-0.274,0.011,1.160,7.874,-6.287,-6.836
-0.245,-0.048,1.141,0.000,-5.554,-9.033
-0.222,-0.080,1.110,-4.639,-4.089,-9.766
-0.215,-0.116,1.063,-3.479,-1.709,-9.766
-0.203,-0.149,1.022,1.160,0.488,-8.789
-0.191,-0.118,0.992,5.066,1.343,-5.310
-0.197,-0.058,0.961,10.437,1.831,-2.319
-0.188,-0.052,0.936,19.714,2.808,-1.709
-0.177,-0.074,0.904,26.672,3.906,-1.892
-0.189,-0.090,0.878,26.733,3.174,-0.244
-0.188,-0.103,0.878,20.386,0.854,1.587
-0.175,-0.110,0.912,10.498,-1.892,2.563
-0.152,-0.108,0.955,0.488,-2.930,3.357
-0.148,-0.090,0.966,-7.019,-2.075,4.211
-0.169,-0.081,0.948,-9.705,-0.061,4.333
-0.188,-0.094,0.924,-8.484,1.221,3.601
-0.196,-0.116,0.909,-6.958,0.854,3.784
-0.202,-0.112,0.910,-6.531,-0.854,5.676
-0.207,-0.088,0.925,-5.615,-2.625,7.812
-0.177,-0.068,0.960,-3.601,-3.784,8.118
-0.149,-0.045,0.987,-2.563,-2.808,8.179
-0.146,0.000,0.978,-2.747,-0.244,8.850
-0.168,0.044,0.947,-2.747,1.526,8.911
-0.186,0.047,0.920,-1.099,2.441,7.568
-0.199,0.030,0.915,1.892,1.526,6.653
-0.193,0.018,0.935,3.906,0.488,6.531
-0.181,0.014,0.964,5.432,0.427,6.348
-0.177,0.011,0.978,5.066,1.221,5.981
-0.165,0.031,0.971,2.686,2.075,5.188
-0.168,0.043,0.959,0.671,2.441,4.028
-0.180,0.027,0.939,0.366,2.014,2.686
-0.186,0.017,0.931,0.244,0.977,1.953
-0.201,0.017,0.946,0.916,-0.427,1.648
-0.205,0.008,0.981,2.808,-1.892,0.732
-0.190,-0.010,1.016,3.906,-1.526,-0.732
-0.183,-0.020,1.019,3.174,0.305,-1.282
-0.170,-0.038,0.999,2.014,1.831,-1.343
-0.174,-0.029,0.964,1.770,2.747,0.061
-0.191,-0.019,0.934,4.089,2.869,1.404
-0.200,-0.016,0.938,8.545,2.136,1.709
-0.203,-0.007,0.950,10.986,1.099,1.160
-0.190,-0.030,0.969,10.559,0.732,0.183
-0.191,-0.043,0.976,7.629,1.038,0.122
-0.173,-0.047,0.986,4.700,2.197,0.610
-0.161,-0.045,0.984,2.686,4.089,0.793
-0.169,-0.046,0.965,1.099,6.226,1.221
-0.172,-0.024,0.931,-0.061,7.263,2.014
-0.186,-0.002,0.901,0.732,6.836,2.441
-0.196,-0.004,0.880,1.892,5.676,1.892
-0.192,-0.022,0.883,1.709,3.174,1.709
-0.190,-0.028,0.904,0.854,0.916,2.686
-0.187,-0.022,0.929,1.526,-0.366,3.113
-0.177,-0.026,0.952,3.601,-0.977,2.197
-0.166,-0.016,0.958,4.456,-1.160,1.587
-0.175,0.003,0.944,4.211,-0.793,1.343
-0.179,0.000,0.926,4.578,-0.793,0.488
-0.187,-0.005,0.920,4.150,-1.099,-0.183
-0.198,-0.016,0.932,2.991,-1.953,-0.305
-0.203,-0.037,0.964,2.625,-2.747,-0.916
-0.197,-0.041,0.994,2.319,-2.563,-0.977
-0.192,-0.031,1.001,2.075,-1.465,-0.854
-0.191,-0.015,0.991,2.686,0.183,-0.854
-0.193,-0.002,0.966,4.150,1.343,-0.793
-0.193,-0.000,0.951,5.798,2.014,-1.221
-0.205,-0.008,0.945,6.409,1.709,-1.221
-0.213,-0.020,0.951,5.859,1.160,-1.404
-0.214,-0.032,0.958,5.493,0.977,-2.197
-0.195,-0.034,0.967,5.005,0.793,-2.747
-0.195,-0.033,0.969,5.127,0.977,-2.625
-0.183,-0.035,0.969,6.104,1.709,-2.441
-0.194,-0.027,0.965,8.362,2.258,-2.075
-0.198,-0.016,1.004,11.597,2.625,-2.075
-0.198,-0.006,1.042,12.146,3.174,-2.808
-0.198,-0.016,1.058,8.789,4.883,-3.235
-0.199,-0.046,1.034,3.479,6.958,-3.418
-0.198,-0.064,1.002,-1.160,8.484,-3.357
-0.207,-0.082,0.985,-2.563,7.629,-2.625
-0.201,-0.086,0.993,-0.305,6.592,-2.319
-0.211,-0.078,1.004,4.211,5.981,-1.526
-0.210,-0.070,1.029,7.751,5.676,-1.404
-0.205,-0.068,1.035,9.644,6.531,-1.526
-0.200,-0.090,1.019,9.888,7.874,-0.916
-0.216,-0.097,1.004,8.606,8.240,0.854
-0.201,-0.101,0.998,8.911,7.812,1.404
-0.183,-0.118,1.000,9.827,7.629,1.099
-0.172,-0.109,0.994,9.399,8.057,2.075
-0.171,-0.101,0.982,8.911,8.789,2.808
-0.175,-0.110,0.985,8.606,9.949,3.540
-0.193,-0.096,0.970,5.676,10.132,4.639

1.198,-0.189,1.166,-6.287,-11.902,46.875
1.266,-0.184,1.122,-5.310,-8.667,55.298
1.325,-0.169,1.066,-8.606,-6.409,64.636
1.349,-0.111,1.009,-18.127,-6.531,76.599
1.377,-0.042,0.955,-32.410,-7.446,88.257
1.379,0.000,0.868,-47.485,-7.263,97.717
1.385,0.022,0.755,-60.547,-7.690,105.713
1.375,0.035,0.614,-67.749,-11.719,112.915
1.304,0.091,0.447,-67.200,-18.921,119.812
1.249,0.125,0.344,-56.885,-31.250,122.253
1.269,0.098,0.364,-39.673,-43.091,120.300
1.198,0.115,0.340,-26.978,-51.147,119.629
1.122,0.162,0.298,-20.447,-56.824,118.469
0.969,0.210,0.251,-18.921,-63.049,113.281
0.836,0.259,0.217,-19.897,-67.932,104.065
0.667,0.291,0.183,-19.897,-74.951,93.201
0.533,0.259,0.225,-16.663,-81.726,81.604
0.396,0.252,0.305,-11.597,-83.496,71.167
0.166,0.274,0.293,-4.517,-79.224,60.730
-0.076,0.289,0.307,5.676,-73.792,46.265
-0.330,0.314,0.280,12.634,-71.167,30.457
-0.548,0.354,0.206,10.315,-75.012,15.930
-0.778,0.451,0.173,2.502,-89.294,5.066
-0.890,0.479,0.396,2.441,-104.614,-8.179
-0.994,0.410,0.598,13.123,-105.225,-25.391
-1.251,0.308,0.676,23.437,-88.562,-37.659
-1.585,0.177,0.724,18.066,-71.838,-47.363
-1.680,-0.040,0.903,4.333,-61.218,-58.533
-1.786,-0.156,0.957,-13.062,-46.082,-60.913
-1.860,-0.177,1.001,-31.189,-32.898,-55.908
-1.854,-0.125,1.001,-41.382,-26.123,-53.284
-1.809,-0.228,1.011,-41.870,-24.719,-54.871
-1.708,-0.376,1.099,-31.921,-24.231,-52.856
-1.642,-0.356,1.122,-15.686,-18.921,-44.373
-1.521,-0.344,1.139,7.812,-13.367,-39.124
-1.319,-0.288,1.150,33.813,-10.742,-37.720
-1.119,-0.279,1.157,57.434,-8.179,-34.607
-0.986,-0.290,1.122,77.271,-1.526,-27.832
-0.905,-0.242,1.039,90.576,7.446,-16.113
-0.842,-0.165,0.997,100.525,15.564,-5.554
-0.791,-0.084,0.969,103.210,20.386,0.671
-0.678,0.015,0.969,95.337,21.912,4.639
-0.592,0.118,0.934,83.252,21.484,7.141
-0.532,0.167,0.876,71.777,20.203,7.141
-0.509,0.161,0.820,57.434,15.442,5.066
-0.512,0.145,0.794,39.856,6.897,3.357
-0.531,0.167,0.827,25.208,-3.174,1.099
-0.500,0.132,0.909,18.738,-10.254,-3.113
-0.420,0.084,1.006,14.221,-13.550,-5.798
-0.365,0.083,1.064,6.470,-14.099,-4.272
-0.348,0.087,1.076,-3.784,-13.062,-2.075
-0.350,0.083,1.079,-14.526,-13.000,-0.122
-0.345,0.100,1.082,-22.095,-14.771,1.770
-0.363,0.129,1.097,-21.423,-16.602,3.906
-0.373,0.150,1.112,-13.184,-17.273,4.395
-0.371,0.139,1.133,-1.587,-17.029,1.953
-0.360,0.102,1.154,8.728,-15.320,-0.610
-0.327,0.072,1.163,14.771,-12.573,-1.282
-0.280,0.057,1.156,15.869,-8.728,-0.854
-0.221,0.066,1.115,14.954,-3.479,0.549
-0.217,0.093,1.045,15.564,1.953,2.441
-0.232,0.119,1.001,17.944,5.005,2.686
-0.239,0.140,0.986,20.264,5.310,1.526
-0.243,0.142,0.980,20.752,4.333,0.000
-0.227,0.126,0.975,18.555,2.991,-2.014
-0.212,0.101,0.973,13.733,1.526,-3.113
-0.207,0.077,0.977,8.667,0.732,-3.174
-0.208,0.108,0.990,5.188,0.366,-3.479
-0.218,0.103,1.009,5.432,0.732,-5.493
-0.218,0.079,1.010,6.287,2.380,-7.385
-0.216,0.077,0.978,4.639,3.540,-6.409
-0.209,0.070,0.952,4.761,2.869,-4.944
-0.208,0.039,0.937,7.751,1.221,-4.089
-0.218,0.024,0.933,10.803,0.061,-2.991
-0.235,0.034,0.951,11.536,-2.014,-2.136
-0.235,0.027,0.981,9.338,-3.235,-2.563
-0.221,0.026,0.991,7.019,-2.563,-3.113
-0.210,0.018,0.990,5.310,-1.099,-3.174
-0.206,0.003,0.984,4.761,0.732,-3.296
-0.198,-0.017,0.969,3.906,2.441,-3.174
-0.204,-0.017,0.951,3.479,3.052,-2.075
-0.205,0.007,0.943,4.944,2.258,-0.305
-0.195,-0.005,0.949,8.057,1.282,0.122
-0.185,0.011,0.965,9.827,0.977,1.953
-0.185,0.040,0.966,9.888,1.465,3.113
-0.189,0.048,0.964,9.155,2.075,2.686
-0.194,0.027,0.954,7.019,2.502,1.648
-0.205,0.003,0.934,4.578,2.380,1.465
-0.201,-0.005,0.931,3.906,2.136,1.709
-0.192,0.023,0.936,6.104,1.465,1.221
-0.171,0.034,0.955,9.521,1.648,-0.549
-0.170,0.032,0.950,8.728,2.808,-1.770
-0.182,0.045,0.939,3.479,2.808,-1.892
-0.187,0.038,0.935,-0.610,1.404,-2.441
-0.199,0.018,0.935,-0.366,0.427,-2.991
-0.206,0.005,0.945,2.747,-0.488,-2.808
-0.202,-0.006,0.965,6.104,-1.160,-2.441
-0.195,-0.007,0.977,7.812,-0.854,-1.831
-0.183,-0.002,0.989,7.629,-0.183,-1.343
-0.180,0.021,0.997,6.958,0.793,-1.038
-0.182,0.043,0.994,8.606,2.380,-1.404
-0.184,0.037,0.979,10.681,4.272,-2.380
-0.190,0.014,0.944,10.010,5.371,-2.441
-0.193,0.001,0.915,7.019,4.822,-1.587
-0.195,-0.014,0.912,5.432,3.174,-1.282
-0.199,-0.025,0.924,5.493,1.587,-1.221
-0.187,-0.025,0.950,6.409,0.244,-1.221
-0.178,-0.009,0.970,6.714,-0.305,-1.099
-0.183,-0.001,0.971,5.981,-0.183,-0.732
-0.206,-0.007,0.964,3.906,0.488,-0.610
-0.210,-0.024,0.951,0.305,0.793,-0.610
-0.200,-0.029,0.948,-1.953,0.366,-0.366
-0.196,-0.029,0.958,-1.770,-0.244,0.488
-0.202,-0.030,0.974,-0.244,-1.038,1.160
-0.197,-0.017,0.980,1.465,-0.793,1.831
-0.206,0.024,0.974,3.357,-0.122,2.380
-0.235,0.052,0.967,5.432,0.427,2.014
-0.263,0.053,0.971,6.653,0.671,0.671
-0.293,0.045,0.973,4.211,0.854,-0.549

-2.193,0.679,0.327,-76.172,6.470,16.968
-2.232,0.592,0.573,-23.010,-42.114,-52.979
-2.141,-0.006,0.986,47.668,-69.458,-121.460
-2.048,-0.466,1.273,80.872,-78.247,-145.142
-1.833,-0.657,1.458,70.984,-73.608,-135.986
-1.583,-0.634,1.534,45.776,-64.453,-116.821
-1.220,-0.623,1.526,41.016,-48.889,-103.882
-0.957,-0.652,1.481,68.665,-22.400,-92.285
-0.821,-0.588,1.300,112.793,13.245,-73.608
-0.840,-0.504,1.068,154.175,45.044,-50.720
-0.865,-0.437,0.890,172.729,56.763,-31.616
-0.826,-0.341,0.800,161.255,47.974,-15.625
-0.727,-0.238,0.790,132.996,31.189,-3.174
-0.594,-0.162,0.838,104.553,14.771,5.432
-0.525,-0.084,0.899,79.102,3.418,10.986
-0.504,-0.062,0.936,50.293,-2.747,12.512
-0.525,-0.078,1.024,13.916,-8.667,12.024
-0.495,-0.093,1.085,-25.513,-18.188,10.071
-0.472,-0.076,1.143,-53.894,-24.841,10.864
-0.447,-0.044,1.177,-63.599,-27.649,12.878
-0.413,-0.037,1.208,-58.777,-26.001,13.550
-0.372,-0.011,1.212,-48.584,-21.301,15.076
-0.370,-0.001,1.186,-38.330,-14.954,17.334
-0.373,0.018,1.164,-29.114,-9.705,18.494
-0.364,0.083,1.147,-21.179,-6.348,19.165
-0.361,0.130,1.131,-12.207,-3.906,17.334
-0.330,0.159,1.101,-2.197,-2.014,14.282
-0.329,0.140,1.067,5.066,-0.610,11.414
-0.305,0.114,1.053,7.141,-0.122,8.850
-0.281,0.087,1.053,4.883,-1.038,6.653
-0.256,0.047,1.049,0.916,-1.038,4.822
-0.228,0.031,1.036,-1.526,0.854,4.028
-0.223,0.047,1.000,0.366,4.395,4.822
-0.227,0.087,0.955,7.080,7.996,5.005
-0.236,0.089,0.923,15.259,9.949,2.747
-0.231,0.077,0.911,18.616,9.216,0.122
-0.207,0.055,0.908,15.625,6.836,-1.160
-0.190,0.016,0.908,10.376,4.517,-1.892
-0.178,-0.005,0.905,6.409,2.625,-1.953
-0.180,-0.010,0.913,4.333,1.404,-2.441
-0.183,0.021,0.926,3.845,0.610,-3.174
-0.197,0.035,0.940,4.883,0.610,-4.028
-0.198,0.037,0.941,4.822,1.770,-5.981
-0.215,0.006,0.932,1.221,2.319,-7.019
-0.220,-0.030,0.923,-5.615,1.465,-6.653
-0.221,-0.067,0.915,-10.498,-0.244,-4.883
-0.208,-0.103,0.922,-8.789,-1.038,-3.235
-0.188,-0.084,0.939,-0.549,-0.244,-0.732
-0.182,-0.047,0.961,11.536,2.380,2.808
-0.193,-0.000,0.971,22.034,6.775,5.554
-0.217,0.031,0.957,25.696,10.254,7.019
-0.223,0.033,0.939,23.804,11.719,6.775
-0.236,0.021,0.923,17.395,11.597,6.042
-0.252,0.005,0.902,9.460,10.254,4.211
-0.252,-0.057,0.888,4.272,7.874,1.648
-0.265,-0.089,0.880,2.563,5.554,1.831
-0.290,-0.075,0.889,5.188,3.540,3.479
-0.303,-0.039,0.920,12.146,2.991,4.272
-0.333,-0.009,0.944,18.616,3.662,3.601
-0.359,-0.011,0.963,19.653,4.639,1.892
-0.381,-0.017,0.975,14.404,4.761,1.221
-0.414,-0.033,0.981,6.775,4.944,1.099
-0.449,-0.059,0.993,1.648,4.578,0.427
-0.470,-0.111,1.015,-1.404,3.540,-0.122
-0.494,-0.154,1.035,-2.869,3.357,0.793
-0.494,-0.182,1.045,-2.075,3.906,3.296
-0.507,-0.193,1.050,-0.244,4.089,6.470
-0.531,-0.180,1.048,-0.549,2.930,8.911
-0.582,-0.156,1.033,-2.625,-0.183,9.827
-0.621,-0.106,1.031,-3.906,-3.906,7.751
-0.720,-0.050,1.030,-4.822,-7.507,2.014
-0.724,-0.090,1.095,-6.226,-10.071,-6.409
-0.732,-0.124,1.098,-10.498,-12.634,-11.597
-0.716,-0.107,1.214,-16.174,-11.047,-9.705
-0.765,-0.071,1.245,-20.386,-2.319,-7.080
-0.813,-0.042,1.219,-20.630,5.981,-8.850
-0.840,-0.113,1.193,-13.184,15.198,-12.695
-0.823,-0.196,1.113,-6.836,21.545,-11.108
-0.809,-0.164,1.050,1.038,26.001,-4.028
-0.832,-0.055,0.979,15.808,29.907,1.831
-0.892,-0.023,0.960,39.185,32.593,0.977
-0.850,0.027,0.950,58.777,33.020,-3.418
-0.781,-0.025,0.953,61.279,29.175,-8.057
-0.638,-0.188,0.985,42.908,21.851,-4.944
-0.543,-0.141,1.005,3.418,12.817,13.611
-0.592,0.049,0.972,-37.598,7.507,34.912
-0.620,0.122,0.951,-52.246,8.179,37.842
-0.555,0.092,0.976,-42.786,12.573,27.466
-0.468,0.054,1.000,-29.602,15.381,17.883
-0.441,0.041,0.993,-21.545,18.005,14.709
-0.424,0.020,0.980,-19.104,22.034,14.038
-0.373,0.004,0.960,-18.250,25.879,13.550
-0.305,-0.073,0.910,-16.663,29.053,14.526
-0.252,-0.073,0.879,-15.747,29.907,20.020
-0.236,-0.026,0.840,-15.442,27.222,27.283
-0.217,0.025,0.813,-11.597,25.391,29.541
-0.185,0.063,0.803,-4.517,23.315,26.489
-0.136,0.049,0.838,4.150,20.386,20.569
-0.109,0.082,0.833,9.399,20.142,15.442
-0.086,0.095,0.822,10.864,20.386,10.010
-0.056,0.049,0.799,10.132,20.508,4.333
-0.004,-0.001,0.791,3.540,20.081,1.709
0.033,0.001,0.757,-5.981,19.043,3.113
0.021,0.008,0.739,-10.498,18.738,3.723
0.061,0.000,0.742,-8.362,17.639,0.977
0.070,-0.016,0.748,-6.470,15.625,-1.404
0.080,0.002,0.747,-10.071,13.855,-1.526
0.092,0.039,0.729,-15.991,11.475,-2.441
0.087,0.080,0.737,-19.165,7.812,-5.981
0.103,0.086,0.751,-19.409,2.563,-12.817
0.155,0.057,0.820,-17.578,0.610,-19.531
0.174,0.073,0.843,-16.479,0.732,-24.048
0.170,0.096,0.858,-14.832,3.235,-28.503
0.180,0.114,0.858,-13.550,6.592,-34.119
0.189,0.101,0.853,-15.320,9.094,-39.917
0.275,0.087,0.839,-20.203,14.709,-45.715
0.297,0.116,0.807,-24.963,15.198,-49.988
0.232,0.109,0.751,-28.259,11.169,-46.936
0.239,0.133,0.727,-25.024,10.559,-48.950

1.204,-0.188,1.256,-13.550,-10.742,51.086
1.240,-0.151,1.188,-32.349,-7.080,64.392
1.216,-0.079,1.084,-49.500,-4.333,77.698
1.230,-0.044,1.019,-52.063,-3.662,84.778
1.257,-0.041,0.970,-48.035,-5.554,89.233
1.259,-0.045,0.928,-44.739,-9.033,94.971
1.230,-0.021,0.885,-41.870,-13.428,100.464
1.192,-0.002,0.875,-34.729,-17.639,102.783
1.142,0.023,0.833,-24.658,-19.226,102.112
1.090,0.065,0.748,-17.029,-18.555,99.670
1.067,0.123,0.618,-16.052,-22.705,94.421
1.016,0.207,0.497,-22.827,-31.555,87.463
0.985,0.176,0.546,-33.325,-42.847,75.806
0.923,0.109,0.613,-43.457,-45.776,63.721
0.761,0.073,0.593,-51.147,-38.025,57.434
0.504,0.182,0.441,-54.810,-31.006,53.894
0.268,0.323,0.276,-55.908,-33.691,43.274
0.170,0.358,0.300,-57.068,-44.617,22.583
0.109,0.381,0.378,-65.918,-55.176,2.380
0.022,0.411,0.440,-77.271,-57.312,-13.306
-0.046,0.387,0.564,-87.219,-49.561,-27.893
-0.080,0.281,0.661,-96.558,-29.419,-36.743
-0.260,0.194,0.499,-107.483,-0.366,-32.166
-0.500,0.155,0.198,-114.624,28.687,-14.526
-0.943,0.241,-0.009,-109.558,37.170,5.981
-1.323,0.631,-0.326,-84.961,18.372,9.949
-1.504,0.640,-0.179,-32.959,-23.865,-13.245
-1.685,0.763,0.172,15.625,-63.049,-34.729
-1.969,0.708,0.558,44.312,-84.595,-47.729
-2.207,0.604,0.968,56.946,-89.417,-57.678
-2.591,0.593,1.206,53.040,-88.013,-67.627
-2.615,0.247,1.403,48.035,-83.618,-88.318
-2.276,-0.095,1.572,50.781,-76.416,-107.788
-1.919,-0.229,1.548,72.021,-66.040,-114.624
-1.481,-0.454,1.376,127.869,-43.274,-116.455
-1.147,-0.551,1.106,198.608,-12.756,-107.178
-1.002,-0.528,0.804,252.014,10.193,-85.571
-0.905,-0.423,0.562,264.587,15.991,-63.843
-0.806,-0.364,0.535,228.088,2.625,-47.546
-0.664,-0.394,0.660,153.625,-19.958,-33.630
-0.613,-0.300,0.839,75.684,-35.706,-14.954
-0.688,-0.198,0.990,27.527,-45.715,0.000
-0.622,-0.164,1.216,5.676,-55.176,5.371
-0.590,-0.093,1.418,-8.118,-56.519,11.780
-0.560,0.021,1.539,-18.311,-48.157,18.250
-0.493,0.151,1.566,-30.640,-33.936,21.423
-0.462,0.269,1.456,-45.105,-16.052,22.034
-0.448,0.297,1.258,-53.284,-0.122,18.982
-0.442,0.291,1.071,-54.443,10.620,16.418
-0.439,0.252,0.962,-51.819,13.489,14.465
-0.400,0.256,0.900,-50.537,9.338,12.634
-0.396,0.235,0.930,-45.227,2.747,13.306
-0.390,0.211,1.005,-37.048,-6.104,12.390
-0.374,0.233,1.096,-30.151,-12.329,10.681
-0.353,0.224,1.149,-24.048,-14.404,7.812
-0.333,0.191,1.177,-17.761,-10.803,6.348
-0.327,0.172,1.192,-9.949,-5.066,7.690
-0.309,0.164,1.200,-0.854,0.427,9.521
-0.287,0.212,1.180,11.963,6.531,10.315
-0.273,0.203,1.130,30.762,15.137,8.789
-0.259,0.159,1.035,44.983,21.484,6.348
-0.221,0.131,0.936,47.913,25.085,5.554
-0.230,0.106,0.845,42.847,22.827,5.920
-0.216,0.061,0.825,35.889,16.907,5.432
-0.210,0.037,0.855,27.466,9.033,4.333
-0.201,0.021,0.896,18.250,1.953,3.906
-0.185,0.028,0.938,10.681,-1.526,3.540
-0.177,0.058,0.968,7.446,-2.014,3.967
-0.177,0.089,0.990,8.728,-0.061,4.272
-0.181,0.145,0.989,11.841,2.686,4.700
-0.204,0.185,0.988,14.282,5.127,2.930
-0.228,0.171,0.974,9.644,5.493,-0.916
-0.237,0.104,0.958,-2.625,3.479,-3.845
-0.229,0.023,0.953,-15.320,0.916,-4.883
-0.213,-0.036,0.933,-18.372,-0.061,-4.395
-0.259,-0.042,0.929,16.113,3.540,-0.793
-0.322,-0.010,0.923,36.072,6.287,0.916
-0.380,-0.009,0.927,44.739,6.775,0.549
-0.431,-0.045,0.936,41.870,5.066,-0.305
-0.446,-0.081,0.963,32.715,3.296,0.732
-0.466,-0.111,0.988,24.170,0.854,2.991
-0.469,-0.152,1.011,20.386,-1.465,4.639
-0.445,-0.196,1.021,20.508,-3.113,6.531
-0.416,-0.228,1.009,20.752,-5.188,11.169
-0.403,-0.230,0.975,19.958,-8.423,17.334
-0.449,-0.234,0.932,19.470,-12.634,23.682
-0.467,-0.219,0.963,19.958,-17.090,29.236
-0.495,-0.150,0.982,17.822,-21.057,33.875
-0.512,-0.109,1.055,16.174,-21.301,36.499
-0.521,-0.075,1.124,12.085,-15.259,37.292
-0.562,-0.072,1.169,3.174,-6.287,38.086
-0.602,-0.058,1.172,-9.094,2.869,39.551
-0.617,-0.067,1.121,-19.958,11.963,40.100
-0.632,-0.084,1.051,-25.574,18.860,42.542
-0.648,-0.080,0.952,-26.855,20.874,46.509
-0.693,-0.050,0.857,-22.400,18.372,49.866
-0.742,-0.010,0.780,-13.916,11.902,51.453
-0.752,0.005,0.769,-0.549,3.052,50.110
-0.753,0.046,0.798,13.733,-3.540,46.631
-0.736,0.078,0.834,25.818,-5.432,41.931
-0.724,0.054,0.861,34.119,-2.808,35.706
-0.668,-0.004,0.879,36.621,0.549,28.748
-0.604,-0.082,0.861,29.724,0.977,27.466
-0.565,-0.070,0.842,11.292,-1.831,33.875
-0.557,0.003,0.814,-13.367,-6.897,42.542
-0.569,0.055,0.797,-32.288,-11.841,45.837
-0.552,0.091,0.803,-41.138,-15.564,43.030
-0.514,0.106,0.835,-41.260,-17.395,36.133
-0.473,0.110,0.868,-36.133,-16.296,28.442
-0.430,0.107,0.892,-31.677,-13.611,21.423
-0.418,0.046,0.906,-30.701,-10.681,16.235
-0.305,-0.020,0.926,-35.706,-7.935,13.245
-0.245,-0.031,0.939,-47.913,-7.019,17.029
-0.246,0.030,0.929,-62.256,-5.981,23.071
-0.264,0.125,0.920,-66.956,-4.578,22.888
-0.256,0.150,0.929,-61.035,-2.258,14.465
-0.244,0.099,0.956,-51.514,1.404,6.104
-0.238,0.110,0.952,-48.157,3.235,2.747
-0.272,0.140,0.949,-45.898,4.517,-0.549

-2.914,0.877,-0.276,-74.158,15.869,-76.843
-3.186,0.289,0.202,-27.161,-37.903,-154.175
-3.420,-0.244,0.833,-21.301,-84.595,-202.515
-3.173,-1.061,1.592,-62.012,-129.211,-220.764
-2.297,-1.543,2.190,-109.802,-151.123,-205.688
-1.323,-1.503,2.246,-100.037,-119.873,-165.527
-0.880,-1.280,1.847,-3.113,-43.152,-119.507
-0.747,-1.217,1.382,131.653,35.217,-86.731
-0.646,-1.172,0.890,214.233,79.163,-56.030
-0.579,-0.919,0.501,207.397,82.397,-13.428
-0.615,-0.467,0.287,146.973,59.204,28.198
-0.716,-0.128,0.388,77.942,21.240,49.927
-0.726,0.091,0.685,11.902,-18.127,55.237
-0.688,0.237,1.010,-39.124,-46.448,54.932
-0.632,0.386,1.237,-58.167,-55.603,52.429
-0.575,0.496,1.380,-43.579,-46.265,46.875
-0.539,0.656,1.376,-14.954,-25.513,41.565
-0.522,0.807,1.274,6.836,-4.395,34.302
-0.506,0.801,1.124,9.033,7.202,21.362
-0.413,0.632,0.996,-9.460,7.080,5.249
-0.382,0.411,0.915,-34.729,2.808,-4.822
-0.353,0.172,0.887,-53.955,-1.892,-9.705
-0.364,-0.019,0.919,-58.594,-7.751,-7.751
-0.328,-0.020,0.994,-45.532,-12.329,-0.977
-0.345,0.053,1.073,-19.470,-13.611,6.592
-0.347,0.154,1.104,7.996,-9.766,12.390
-0.333,0.220,1.125,28.809,-5.310,15.564
-0.320,0.245,1.121,38.330,-0.305,15.808
-0.311,0.222,1.094,37.354,3.967,14.099
-0.288,0.215,1.046,29.480,6.897,11.536
-0.279,0.244,0.983,22.217,7.507,9.644
-0.266,0.199,0.943,17.883,5.737,5.249
-0.229,0.138,0.948,12.817,2.136,2.014
-0.193,0.098,0.975,8.179,-0.854,1.221
-0.177,0.067,1.006,7.202,-1.831,0.916
-0.173,0.074,1.021,8.789,-1.587,0.732
-0.183,0.062,1.006,9.583,-0.671,-0.305
-0.196,0.052,0.992,5.676,0.427,-1.282
-0.214,0.033,0.979,-0.610,0.183,-0.977
-0.225,0.023,0.994,-3.784,-0.671,0.000
-0.201,0.050,1.030,-2.991,-0.671,0.488
-0.192,0.070,1.049,0.122,0.366,0.183
-0.178,0.084,1.042,4.761,1.953,-0.977
-0.195,0.055,1.006,7.202,2.808,-2.014
-0.186,0.004,0.966,5.981,2.747,-2.686
-0.181,-0.021,0.939,4.822,1.465,-1.404
-0.166,-0.027,0.955,6.714,0.732,0.488
-0.164,0.007,0.965,9.033,0.793,2.075
-0.169,0.040,0.970,10.010,1.465,2.197
-0.169,0.060,0.969,8.911,1.404,1.099
-0.170,0.062,0.957,5.554,1.770,0.305
-0.172,0.040,0.949,2.441,1.770,0.122
-0.168,0.014,0.946,0.061,1.282,0.610
-0.162,-0.002,0.938,-1.038,0.732,1.831
-0.153,0.007,0.942,0.854,0.000,3.235
-0.152,0.048,0.943,4.456,-0.488,4.761
-0.151,0.078,0.941,7.751,-0.549,5.066
-0.166,0.083,0.954,9.033,0.122,5.371
-0.182,0.079,0.957,7.446,0.854,5.920
-0.186,0.054,0.965,5.981,0.854,6.104
-0.178,0.056,0.973,7.629,0.671,6.226
-0.183,0.072,0.973,12.634,1.404,5.798
-0.197,0.061,0.961,17.517,2.869,4.150
-0.192,0.055,0.931,17.761,4.395,3.113
-0.196,0.050,0.915,15.625,4.883,2.686
-0.206,0.034,0.921,13.794,4.456,1.709
-0.219,0.010,0.928,12.024,3.967,1.099
-0.227,-0.004,0.926,9.705,3.357,0.916
-0.235,-0.013,0.921,8.240,2.441,1.343
-0.256,-0.012,0.921,8.118,0.977,2.563
-0.266,0.011,0.931,9.338,-0.549,3.479
-0.276,0.016,0.954,12.573,-1.404,3.479
-0.282,0.012,0.979,15.442,-1.465,3.296
-0.291,0.012,0.993,16.602,0.000,3.845
-0.290,0.002,1.011,17.517,2.747,4.272
-0.272,0.015,1.012,17.639,5.432,5.188
-0.258,0.044,1.012,17.273,7.202,6.653
-0.267,0.104,1.014,18.372,7.874,8.667
-0.289,0.124,1.020,22.095,8.972,9.094
-0.288,0.090,1.024,25.269,9.399,8.850
-0.282,0.081,1.020,26.123,8.423,11.108
-0.288,0.062,1.016,27.954,6.958,13.672
-0.276,0.036,1.029,32.349,6.592,14.648
-0.280,0.052,1.012,36.621,6.592,15.137
-0.288,0.048,1.001,38.513,4.883,13.489
-0.295,0.009,0.984,36.072,1.953,10.010
-0.287,-0.047,0.968,30.640,-1.587,6.714
-0.275,-0.098,0.950,24.353,-5.188,5.371
-0.256,-0.133,0.950,20.264,-8.484,6.042
-0.275,-0.158,0.951,17.944,-11.475,8.545
-0.288,-0.161,0.980,16.907,-14.893,11.169
-0.297,-0.142,1.007,16.174,-16.663,13.550
-0.309,-0.116,1.018,16.296,-15.503,14.282
-0.287,-0.102,1.021,18.433,-13.733,14.160
-0.274,-0.068,1.024,23.315,-12.146,14.282
-0.297,-0.069,1.017,28.625,-9.155,13.855
-0.292,-0.070,1.038,30.334,-6.409,11.780
-0.289,-0.089,1.037,23.987,-4.028,8.179
-0.284,-0.134,1.025,12.451,-1.038,4.883
-0.292,-0.198,1.000,-0.854,2.991,3.418
-0.298,-0.227,0.961,-11.902,5.371,4.028
-0.313,-0.241,0.928,-16.357,5.432,5.920
-0.315,-0.253,0.914,-13.977,4.028,7.935
-0.305,-0.270,0.909,-8.118,3.296,11.902
-0.323,-0.207,0.912,-3.906,1.709,18.066
-0.331,-0.139,0.932,1.282,0.671,21.606
-0.336,-0.084,0.951,8.545,0.977,19.409
-0.356,-0.061,0.968,13.855,2.258,13.916
-0.343,-0.079,0.979,13.550,4.822,8.301
-0.338,-0.089,0.969,7.385,6.836,4.944
-0.310,-0.127,0.954,-1.587,8.850,4.089
-0.276,-0.168,0.937,-10.193,9.155,6.409
-0.256,-0.137,0.923,-17.517,8.850,11.169
-0.276,-0.111,0.898,-19.836,9.216,15.015
-0.346,-0.057,0.877,-15.991,7.812,15.381
-0.376,-0.025,0.869,-6.531,3.418,10.559
-0.367,-0.053,0.874,5.737,0.549,4.272
-0.353,-0.040,0.881,15.442,-0.977,0.610
-0.354,-0.025,0.879,21.240,-3.418,-1.648

1.223,-0.176,1.216,-15.747,-6.531,59.326
1.273,-0.164,1.108,-16.052,-3.357,71.838
1.310,-0.140,0.987,-18.860,-3.357,83.374
1.322,-0.099,0.865,-21.362,-6.348,92.529
1.307,-0.043,0.734,-20.508,-12.207,97.595
1.293,0.000,0.603,-18.311,-23.437,98.022
1.260,0.032,0.449,-20.203,-40.527,97.229
1.185,0.061,0.409,-25.024,-61.096,97.290
1.258,0.090,0.548,-26.367,-79.590,95.581
1.177,0.196,0.563,-20.569,-81.116,94.421
1.046,0.310,0.518,-6.531,-73.608,88.074
0.985,0.355,0.543,6.165,-64.453,75.439
0.798,0.456,0.463,3.601,-54.626,65.430
0.473,0.650,0.255,-20.447,-48.889,55.420
0.134,0.769,-0.019,-48.584,-52.917,35.461
-0.139,0.752,-0.224,-62.378,-70.801,6.653
-0.330,0.640,-0.186,-59.937,-101.624,-19.592
-0.269,0.403,0.153,-35.950,-123.596,-40.894
-0.269,0.257,0.452,-3.723,-117.249,-46.997
-0.404,0.207,0.592,27.466,-87.463,-41.931
-0.709,0.276,0.543,47.668,-45.471,-31.372
-1.026,0.348,0.466,50.964,-12.390,-25.085
-1.290,0.262,0.548,40.100,9.583,-24.414
-1.648,0.359,0.490,-3.906,18.860,-16.602
-2.135,0.739,0.312,-63.110,11.169,-13.855
-2.491,0.721,0.377,-89.294,-1.648,-38.879
-2.628,0.402,0.691,-78.674,-31.250,-84.839
-2.590,0.198,1.152,-62.805,-62.561,-120.300
-2.541,-0.137,1.542,-56.641,-87.036,-141.174
-1.960,-0.372,1.839,-37.048,-80.627,-150.757
-1.607,-0.535,1.790,11.719,-51.331,-139.099
-1.292,-0.528,1.516,86.975,0.854,-117.371
-1.123,-0.502,1.040,160.828,49.744,-95.703
-1.048,-0.403,0.591,203.491,78.979,-75.378
-0.937,-0.277,0.239,197.937,74.768,-60.974
-0.807,-0.432,0.089,159.119,49.622,-54.749
-0.682,-0.598,0.136,100.342,17.029,-43.030
-0.540,-0.693,0.375,41.809,-12.146,-22.827
-0.476,-0.625,0.700,10.559,-33.630,-0.183
-0.495,-0.416,1.052,14.343,-42.786,20.508
-0.500,-0.146,1.339,29.907,-42.480,33.813
-0.525,0.118,1.526,31.921,-30.884,41.992
-0.532,0.309,1.481,11.169,-14.282,41.565
-0.496,0.328,1.293,-20.203,0.732,36.194
-0.451,0.267,1.090,-44.678,10.986,29.846
-0.389,0.190,0.948,-52.734,15.686,25.391
-0.378,0.148,0.827,-45.410,14.587,22.949
-0.343,0.145,0.764,-28.931,10.010,22.217
-0.365,0.144,0.791,-16.174,1.221,23.071
-0.309,0.169,0.897,-14.221,-7.996,23.315
-0.249,0.208,1.021,-17.090,-13.123,23.315
-0.289,0.265,1.097,-17.761,-12.878,23.682
-0.316,0.333,1.128,-13.245,-11.230,20.630
-0.324,0.358,1.155,-6.836,-10.193,13.733
-0.324,0.355,1.142,-3.113,-8.789,6.348
-0.308,0.263,1.122,-2.136,-6.775,0.183
-0.265,0.164,1.098,-0.488,-5.981,-2.869
-0.232,0.100,1.064,5.432,-4.089,-3.235
-0.209,0.076,1.031,16.052,-1.648,-3.113
-0.194,0.066,1.012,25.146,0.488,-2.808
-0.194,0.060,0.997,24.841,0.061,-2.258
-0.187,0.034,0.996,15.808,-2.258,-2.197
-0.191,0.029,1.002,5.066,-3.967,-1.038
-0.205,0.039,1.009,-0.671,-4.028,0.305
-0.197,0.045,1.023,-0.427,-3.235,0.244
-0.207,0.051,1.031,1.282,-1.343,0.610
-0.222,0.087,1.019,1.892,0.122,1.831
-0.228,0.106,1.012,4.395,0.244,1.465
-0.204,0.095,1.036,9.277,0.122,-0.183
-0.188,0.071,1.046,10.681,0.732,-1.038
-0.180,0.051,1.043,8.850,2.319,-0.977
-0.185,0.016,1.019,6.897,4.883,-0.793
-0.201,-0.020,0.980,4.700,7.263,0.061
-0.217,0.010,0.957,3.540,6.348,2.319
-0.208,0.084,0.964,6.592,3.113,2.991
-0.208,0.098,0.982,12.207,1.099,1.343
-0.214,0.082,0.985,13.855,-0.061,-0.244
-0.201,0.049,0.991,11.841,-0.671,-0.854
-0.201,0.020,0.991,8.606,0.366,-0.488
-0.201,0.006,0.986,7.935,2.136,0.366
-0.201,0.030,0.991,9.521,4.211,0.916
-0.214,0.042,0.987,11.597,6.836,0.671
-0.227,0.036,0.949,10.315,8.667,0.977
-0.229,0.022,0.911,8.484,8.179,1.770
-0.222,0.002,0.902,7.568,5.127,2.869
-0.211,-0.020,0.919,7.202,2.075,3.845
-0.200,-0.038,0.968,8.179,0.488,5.066
-0.190,-0.026,1.006,9.827,0.732,6.775
-0.190,0.035,1.009,12.329,3.357,8.667
-0.217,0.080,0.987,15.625,6.531,8.667
-0.210,0.106,0.967,16.907,6.897,6.714
-0.207,0.100,0.953,14.587,6.226,4.272
-0.193,0.065,0.937,9.277,5.859,2.197
-0.180,0.039,0.933,3.967,5.493,1.587
-0.196,0.035,0.923,0.732,5.005,1.709
-0.172,0.036,0.919,-0.061,3.967,0.854
-0.174,0.081,0.909,1.160,2.441,0.549
-0.196,0.097,0.893,4.639,1.099,0.122
-0.202,0.066,0.914,8.972,-0.610,-2.319
-0.187,0.023,0.954,9.766,-1.770,-3.174
-0.166,-0.009,0.998,7.202,-1.038,-2.747
-0.165,-0.024,1.002,4.883,1.282,-1.343
-0.140,-0.028,0.996,5.981,4.150,-1.282
-0.149,-0.013,0.971,8.179,6.165,-1.038
-0.161,0.010,0.936,9.338,7.629,-1.160
-0.187,0.019,0.902,9.766,7.507,-1.160
-0.203,0.013,0.883,8.301,6.165,-1.099
-0.208,-0.001,0.881,6.714,3.113,-1.221
-0.195,-0.010,0.895,4.517,0.366,-1.343
-0.181,-0.018,0.925,3.479,-1.709,-1.709
-0.171,-0.025,0.951,3.662,-2.502,-2.258
-0.174,-0.024,0.966,4.211,-2.258,-2.808
-0.199,-0.035,0.970,6.592,-0.916,-3.235
-0.213,-0.072,0.980,10.925,0.977,-3.357
-0.219,-0.092,0.976,12.939,3.235,-2.319
-0.243,-0.088,0.966,14.221,5.249,0.732
-0.250,-0.074,0.961,16.602,5.737,2.869
-0.240,-0.072,0.959,18.127,5.493,3.113
-0.251,-0.092,0.965,17.334,4.517,3.174

-1.731,0.165,0.750,33.447,-40.222,-115.662
-1.675,0.334,0.802,33.997,-39.490,-109.009
-1.590,0.388,0.887,52.063,-37.109,-106.567
-1.534,0.289,0.964,75.317,-28.503,-105.042
-1.542,0.221,0.910,87.219,-15.198,-96.436
-1.428,0.202,0.664,99.731,-1.038,-88.440
-1.286,0.097,0.462,131.836,7.751,-86.670
-1.106,-0.008,0.391,164.917,8.362,-86.304
-1.059,-0.023,0.409,172.241,-1.587,-82.520
-1.067,-0.126,0.542,146.545,-15.320,-79.834
-0.969,-0.378,0.736,92.529,-29.968,-77.087
-0.822,-0.583,0.932,29.785,-40.527,-62.439
-0.702,-0.630,1.060,-6.470,-43.396,-38.086
-0.645,-0.549,1.147,6.409,-34.485,-14.832
-0.625,-0.383,1.227,49.622,-20.569,0.427
-0.651,-0.161,1.301,83.984,-5.981,11.230
-0.697,0.000,1.283,83.374,8.118,17.090
-0.686,0.016,1.237,52.307,18.616,18.799
-0.647,0.044,1.079,11.292,20.874,19.653
-0.584,0.010,0.984,-13.733,18.860,19.470
-0.531,-0.005,0.917,-20.142,15.259,18.677
-0.460,-0.032,0.880,-18.860,11.658,19.714
-0.445,0.014,0.844,-20.996,7.507,24.048
-0.457,0.073,0.832,-23.071,2.197,28.687
-0.449,0.110,0.868,-18.127,-4.272,30.579
-0.453,0.170,0.987,-5.432,-9.460,33.630
-0.395,0.416,1.026,11.169,-15.137,34.607
-0.408,0.481,1.122,33.813,-15.259,28.198
-0.413,0.425,1.216,45.166,-13.550,16.785
-0.376,0.343,1.234,33.813,-12.756,7.385
-0.335,0.208,1.221,14.587,-8.667,0.366
-0.331,0.055,1.148,0.549,-2.441,-2.869
-0.324,-0.078,1.051,-5.066,1.770,-2.136
-0.302,-0.083,0.975,-2.319,2.930,2.258
-0.309,-0.049,0.945,6.165,1.038,5.981
-0.314,-0.018,0.957,12.085,-1.770,7.629
-0.307,0.018,0.993,9.338,-5.554,8.484
-0.324,0.053,1.052,2.258,-8.606,7.507
-0.312,0.060,1.110,-4.028,-9.155,4.150
-0.308,0.050,1.133,-8.240,-5.920,0.671
-0.304,0.022,1.106,-10.254,0.122,-1.038
-0.294,0.002,1.037,-8.057,6.226,-1.648
-0.286,0.019,0.970,-2.563,9.827,-0.610
-0.294,0.029,0.930,2.441,9.521,0.244
-0.283,0.051,0.922,1.587,6.042,0.854
-0.290,0.057,0.935,-3.052,1.770,0.977
-0.285,0.033,0.970,-6.470,-1.465,-0.488
-0.275,0.005,0.994,-7.202,-2.258,-1.465
-0.278,0.004,0.993,-3.906,-0.977,-1.465
-0.280,-0.012,0.986,1.404,0.549,-2.136
-0.274,-0.023,0.993,4.150,1.709,-2.502
-0.272,-0.030,0.993,3.235,3.845,-1.465
-0.267,-0.040,0.978,1.953,5.371,0.000
-0.263,-0.043,0.959,3.174,6.409,1.343
-0.260,-0.045,0.938,5.798,6.775,2.502
-0.268,-0.049,0.923,6.287,6.958,3.479
-0.275,-0.065,0.922,3.601,6.409,4.761
-0.271,-0.044,0.914,1.221,5.554,6.836
-0.258,-0.002,0.907,3.235,5.005,7.935
-0.265,0.033,0.908,9.583,4.089,7.568
-0.269,0.049,0.920,13.611,2.808,6.287
-0.261,0.053,0.945,12.085,1.892,4.395
-0.295,0.036,0.959,6.287,1.343,2.563
-0.276,0.007,0.972,-0.610,0.854,0.610
-0.274,-0.030,0.971,-4.272,1.404,0.366
-0.263,-0.043,0.974,-1.770,3.296,1.404
-0.270,-0.027,0.961,2.686,6.592,3.113
-0.281,-0.018,0.935,5.127,9.216,3.601
-0.280,0.008,0.903,3.723,9.216,3.357
-0.286,0.004,0.885,1.221,7.263,1.648
-0.291,-0.003,0.884,-0.977,3.723,-0.305
-0.288,-0.018,0.911,-2.441,-0.244,-1.465
-0.282,-0.039,0.943,-2.441,-1.892,-1.648
-0.276,-0.052,0.964,-1.892,-1.404,-0.671
-0.278,-0.049,0.972,-0.854,0.305,1.404
-0.270,-0.003,0.954,1.892,2.197,3.235
-0.278,0.016,0.942,7.141,3.418,2.991
-0.280,0.041,0.930,10.193,3.479,1.892
-0.295,0.068,0.920,8.423,2.502,0.916
-0.309,0.046,0.924,2.930,1.038,-1.343
-0.308,0.018,0.940,-5.981,-1.160,-2.686
-0.317,-0.015,0.961,-13.672,-2.747,-3.052
-0.327,-0.042,0.979,-15.259,-2.869,-2.441
-0.334,-0.023,0.965,-11.292,-1.099,-0.549
-0.353,-0.010,0.948,-2.014,0.549,0.977
-0.367,0.010,0.941,8.545,0.793,1.831
-0.354,0.006,0.967,14.465,1.038,1.892
-0.354,0.007,0.983,12.695,1.892,2.869
-0.361,-0.001,0.986,6.653,3.601,4.211
-0.372,-0.025,0.980,1.465,5.066,4.822
-0.383,-0.053,0.973,-1.038,6.287,5.737
-0.383,-0.058,0.971,-1.465,6.226,7.263
-0.386,-0.056,0.979,-0.793,5.554,8.606
-0.408,-0.048,0.967,-0.854,5.127,10.681
-0.435,-0.066,0.953,-2.747,2.625,12.207
-0.416,-0.089,0.979,-5.188,-0.244,13.794
-0.440,-0.071,0.995,-9.399,-2.686,17.212
-0.451,-0.079,1.023,-11.719,-4.700,19.226
-0.448,-0.089,1.062,-11.292,-5.005,20.142
-0.435,-0.092,1.088,-9.216,-4.089,21.484
-0.403,-0.023,1.085,-6.042,-0.305,23.376
-0.432,-0.022,1.079,3.174,6.042,25.757
-0.460,-0.007,1.062,10.193,11.719,25.635
-0.470,0.003,1.054,13.733,15.564,25.269
-0.495,0.016,1.017,14.832,19.104,25.146
-0.517,-0.008,0.980,15.015,22.278,24.536
-0.489,-0.058,0.938,13.000,23.132,25.513
-0.474,-0.065,0.915,10.071,21.423,29.541
-0.453,-0.036,0.875,10.864,17.151,33.936
-0.472,0.000,0.881,17.639,14.221,35.339
-0.459,0.024,0.925,28.198,15.686,32.959
-0.478,0.041,0.938,35.156,19.348,28.809
-0.497,0.056,0.932,35.645,24.414,23.865
-0.500,0.051,0.909,30.457,28.259,17.395
-0.479,0.007,0.903,22.522,28.870,11.169
-0.453,-0.015,0.884,10.986,26.672,8.179
-0.419,-0.075,0.887,0.183,24.841,9.583
-0.398,-0.126,0.871,-10.254,22.461,15.320
-0.381,-0.115,0.857,-18.311,20.142,24.170

-1.892,0.954,0.302,158.936,83.801,-50.354
-2.261,0.619,0.310,131.714,96.069,-95.459
-2.604,0.287,0.307,27.527,77.881,-115.173
-3.093,-0.001,0.349,-117.004,45.227,-103.760
-3.472,0.055,0.622,-243.835,-14.038,-102.783
-3.165,-0.305,1.251,-314.819,-110.596,-150.146
-2.173,-1.244,2.039,-298.889,-182.556,-195.862
-1.272,-1.422,2.287,-204.956,-188.965,-175.781
-0.939,-1.089,2.023,-40.894,-128.845,-128.357
-0.874,-0.982,1.747,147.461,-45.654,-98.145
-0.788,-0.826,1.412,269.287,4.700,-81.360
-0.713,-0.718,1.107,283.386,24.963,-51.453
-0.703,-0.483,0.778,218.262,31.189,-11.475
-0.677,-0.221,0.544,130.920,16.907,19.165
-0.662,-0.089,0.532,63.660,-9.094,35.583
-0.635,-0.050,0.668,22.278,-38.208,40.405
-0.583,-0.009,0.895,-0.854,-60.913,41.626
-0.524,0.124,1.142,-11.047,-72.083,43.030
-0.458,0.202,1.359,-11.658,-68.481,39.795
-0.402,0.245,1.462,-11.169,-51.086,34.790
-0.396,0.341,1.414,-15.015,-29.175,31.494
-0.395,0.341,1.337,-20.508,-10.010,26.306
-0.366,0.320,1.206,-29.480,-2.075,17.944
-0.338,0.293,1.089,-38.025,2.502,11.902
-0.337,0.258,0.980,-39.185,3.357,7.996
-0.334,0.193,0.947,-30.945,-0.305,4.211
-0.354,0.157,0.971,-19.836,-7.446,0.671
-0.338,0.105,1.047,-9.460,-14.160,-2.625
-0.313,0.061,1.107,-3.296,-17.029,-3.845
-0.299,0.010,1.124,-2.197,-14.404,-3.418
-0.285,-0.001,1.106,-0.488,-8.972,-1.831
-0.296,-0.007,1.078,3.296,-3.540,0.000
-0.269,-0.004,1.058,7.446,0.610,1.099
-0.267,0.040,1.031,10.437,2.991,3.235
-0.254,0.059,1.002,13.672,4.700,3.662
-0.244,0.050,0.957,16.052,5.554,2.808
-0.225,0.012,0.908,15.259,5.554,2.075
-0.206,-0.031,0.890,12.756,3.296,2.136
-0.193,-0.023,0.912,9.888,0.793,3.601
-0.175,0.049,0.954,10.925,-0.610,4.028
-0.180,0.102,0.993,14.404,-0.854,0.793
-0.184,0.096,1.011,12.878,0.488,-4.517
-0.187,0.042,1.000,1.526,1.953,-8.972
-0.201,-0.031,0.963,-13.489,2.686,-10.376
-0.215,-0.107,0.926,-24.109,1.343,-9.094
-0.203,-0.143,0.899,-27.710,-0.732,-5.981
-0.207,-0.101,0.891,-22.095,-3.967,-2.319
-0.216,-0.055,0.918,-9.094,-6.287,0.122
-0.214,-0.025,0.979,4.395,-6.104,1.038
-0.226,0.000,1.014,9.827,-3.906,2.258
-0.238,0.010,1.028,7.996,-1.831,2.625
-0.225,-0.024,1.026,3.784,-0.183,1.343
-0.212,-0.057,1.005,2.441,1.526,0.671
-0.208,-0.082,0.964,4.822,2.686,1.282
-0.213,-0.092,0.931,10.376,2.747,2.625
-0.225,-0.062,0.912,15.503,1.404,4.578
-0.219,-0.007,0.915,17.517,0.000,5.981
-0.229,0.003,0.932,15.808,-1.160,5.676
-0.224,0.015,0.954,9.277,-2.502,5.066
-0.224,0.036,0.967,2.380,-3.540,5.310
-0.219,0.020,0.982,0.732,-3.479,4.700
-0.220,0.003,0.996,3.235,-2.869,4.028
-0.226,-0.005,0.991,5.737,-1.465,3.967
-0.235,-0.008,0.981,6.653,-0.061,3.662
-0.241,0.013,0.961,5.493,0.000,3.418
-0.246,0.006,0.958,4.150,-0.854,2.258
-0.238,-0.013,0.978,1.282,-1.343,0.671
-0.239,-0.030,0.995,-3.906,-1.709,0.671
-0.237,-0.027,1.001,-7.629,-1.404,1.709
-0.247,-0.034,1.001,-7.080,-0.671,2.441
-0.231,-0.049,1.001,-1.160,0.488,2.563
-0.234,-0.063,0.994,6.714,2.197,3.662
-0.234,-0.052,0.985,12.085,3.967,5.615
-0.229,-0.007,0.976,14.526,4.883,7.751
-0.234,0.024,0.969,15.625,5.798,7.751
-0.229,0.023,0.960,15.503,6.287,5.676
-0.232,0.017,0.952,11.719,5.981,4.211
-0.234,0.001,0.944,4.578,4.700,3.113
-0.229,-0.022,0.939,-2.563,2.930,2.319
-0.218,-0.054,0.939,-7.690,1.221,2.441
-0.211,-0.021,0.939,-8.667,-0.122,4.395
-0.217,0.024,0.951,-2.441,0.000,5.920
-0.217,0.046,0.964,7.080,1.099,5.493
-0.222,0.067,0.970,13.123,2.441,4.211
-0.219,0.056,0.979,14.771,2.808,3.052
-0.208,0.054,0.980,12.878,2.808,2.930
-0.210,0.050,0.968,11.292,2.991,2.502
-0.209,0.025,0.953,9.521,3.296,1.221
-0.212,0.002,0.942,5.737,3.357,0.732
-0.212,0.008,0.941,1.343,3.052,1.099
-0.221,0.029,0.947,-0.793,3.174,0.977
-0.228,0.024,0.954,0.549,3.418,-1.404
-0.225,0.019,0.945,1.953,3.296,-3.357
-0.234,-0.007,0.929,2.136,2.808,-4.517
-0.215,-0.051,0.934,0.671,2.075,-4.883
-0.194,-0.074,0.972,-2.747,1.770,-3.662
-0.194,-0.066,1.001,-5.798,3.357,-1.648
-0.197,-0.050,1.009,-5.493,6.348,-0.244
-0.198,-0.038,1.001,-1.526,10.132,-0.427
-0.200,-0.056,0.981,3.418,13.916,-1.282
-0.195,-0.079,0.933,5.005,15.808,-1.221
-0.196,-0.095,0.889,4.272,14.465,0.671
-0.194,-0.080,0.865,4.211,10.864,2.625
-0.190,-0.043,0.867,6.348,6.165,3.235
-0.188,-0.033,0.885,8.667,1.404,2.136
-0.186,-0.022,0.904,8.057,-2.380,1.099
-0.203,-0.018,0.929,5.676,-5.615,0.793
-0.196,-0.036,0.973,3.723,-7.324,0.061
-0.185,-0.043,0.997,0.916,-7.568,-0.183
-0.181,-0.056,1.014,-0.793,-6.287,-0.244
-0.180,-0.077,1.010,-2.808,-3.479,-0.122
-0.182,-0.075,0.983,-5.615,-0.854,1.099
-0.186,-0.074,0.950,-5.859,0.793,2.319
-0.187,-0.050,0.926,-2.930,1.038,3.723
-0.199,-0.014,0.919,1.587,0.671,4.700
-0.206,0.014,0.919,4.639,-0.671,4.089
-0.202,0.008,0.926,5.249,-2.930,2.380
-0.202,-0.000,0.936,3.296,-4.944,1.770
-0.197,-0.013,0.953,1.099,-6.348,1.465

1.372,-0.116,1.334,-53.589,-17.639,27.344
1.455,-0.157,1.357,-57.251,-12.817,41.138
1.532,-0.210,1.365,-56.030,-7.935,55.054
1.553,-0.222,1.309,-56.519,-3.235,72.266
1.551,-0.198,1.167,-56.213,1.648,90.454
1.498,-0.171,0.979,-51.331,3.174,105.957
1.417,-0.131,0.761,-48.340,-1.404,119.507
1.323,-0.077,0.594,-48.523,-13.550,131.470
1.270,0.010,0.518,-46.143,-31.006,139.282
1.210,0.114,0.470,-33.875,-47.791,139.099
1.132,0.177,0.453,-14.893,-62.317,131.409
1.087,0.201,0.512,-2.502,-72.815,123.108
1.016,0.281,0.571,4.456,-72.021,116.638
0.853,0.431,0.489,13.733,-60.425,110.657
0.691,0.536,0.364,27.405,-46.997,98.694
0.574,0.576,0.280,31.799,-41.992,84.167
0.373,0.676,0.104,25.940,-39.673,70.190
0.135,0.755,-0.097,14.954,-45.105,52.795
-0.109,0.793,-0.265,6.470,-65.613,29.907
-0.251,0.697,-0.067,17.700,-94.788,4.456
-0.375,0.581,0.334,50.049,-109.192,-16.235
-0.523,0.496,0.650,92.651,-90.027,-34.363
-0.928,0.440,0.823,126.404,-42.786,-48.523
-1.305,0.425,0.693,125.732,12.573,-63.904
-1.535,0.201,0.589,88.928,59.021,-76.660
-1.869,-0.032,0.311,18.555,88.440,-66.711
-2.424,-0.054,0.002,-69.946,91.980,-30.090
-3.175,0.497,-0.270,-134.033,65.002,-1.892
-3.719,0.786,-0.223,-121.948,-5.676,-42.786
-3.343,0.019,0.488,-56.519,-87.646,-148.621
-2.586,-0.766,1.319,-24.292,-137.634,-218.201
-2.032,-1.074,1.946,-53.772,-156.921,-198.181
-1.494,-0.857,2.106,-72.937,-132.324,-150.818
-1.199,-0.835,2.019,-20.630,-79.346,-114.868
-0.995,-0.853,1.790,86.548,-14.099,-85.205
-0.935,-0.867,1.540,199.402,39.734,-52.979
-0.886,-0.685,1.250,273.071,70.557,-20.447
-0.807,-0.462,0.985,296.021,75.012,4.211
-0.703,-0.173,0.828,266.846,62.195,21.057
-0.694,0.016,0.770,194.641,39.124,29.602
-0.652,0.026,0.813,99.792,12.085,33.386
-0.580,0.059,0.898,14.893,-9.399,35.522
-0.525,0.214,1.030,-29.114,-19.958,37.598
-0.467,0.384,1.147,-31.067,-18.738,33.081
-0.439,0.465,1.239,-15.137,-9.644,22.278
-0.437,0.497,1.257,-11.841,-0.366,12.268
-0.396,0.456,1.205,-28.259,7.019,2.563
-0.386,0.320,1.129,-49.927,12.146,-5.432
-0.357,0.149,1.073,-64.697,13.916,-11.108
-0.349,0.003,1.009,-69.946,13.184,-12.390
-0.338,-0.149,1.004,-61.218,9.033,-11.230
-0.292,-0.222,1.032,-45.410,2.930,-6.958
-0.283,-0.144,1.054,-28.076,-1.282,1.404
-0.303,-0.092,1.077,-8.362,-2.625,6.470
-0.290,-0.036,1.089,4.517,-1.953,8.850
-0.274,0.016,1.093,7.690,-0.671,10.376
-0.242,0.035,1.090,9.155,1.892,9.521
-0.237,0.052,1.048,12.817,5.432,8.850
-0.217,0.071,0.976,20.935,10.681,7.690
-0.213,0.069,0.870,31.128,13.062,5.188
-0.203,0.051,0.791,36.804,10.559,2.197
-0.167,0.014,0.756,34.851,4.028,-0.488
-0.126,-0.057,0.842,27.527,-1.953,-1.831
-0.109,-0.046,0.931,13.489,-4.700,-0.244
-0.123,-0.040,0.981,-2.258,-4.761,0.610
-0.145,-0.018,1.000,-14.038,-3.418,-0.916
-0.137,0.018,1.000,-21.484,-2.502,-2.502
-0.147,-0.003,0.988,-23.865,-1.343,-3.174
-0.156,-0.020,0.969,-22.400,-0.916,-2.808
-0.143,-0.036,0.971,-15.442,-1.831,-1.648
-0.143,-0.057,1.000,-2.441,-2.136,-0.488
-0.152,-0.056,1.023,10.071,-1.587,1.160
-0.157,-0.027,1.028,17.395,-0.061,2.625
-0.162,-0.027,1.028,18.188,2.808,2.991
-0.171,-0.040,0.997,12.390,5.798,2.991
-0.172,-0.051,0.946,4.517,7.812,3.540
-0.163,-0.045,0.906,1.221,7.874,3.906
-0.167,-0.021,0.889,3.540,6.531,4.089
-0.163,-0.019,0.887,7.874,4.272,3.601
-0.170,-0.033,0.895,7.690,1.892,3.235
-0.169,-0.032,0.894,3.235,0.000,4.456
-0.175,-0.038,0.894,-0.732,-1.160,4.944
-0.185,-0.018,0.899,-1.953,-2.563,5.005
-0.177,0.005,0.910,-1.099,-3.784,4.333
-0.170,0.035,0.917,1.221,-4.639,3.235
-0.165,0.049,0.927,2.258,-4.639,2.686
-0.170,0.052,0.921,-0.793,-4.456,2.136
-0.189,0.027,0.947,-4.395,-4.456,1.709
-0.188,0.016,0.936,-7.568,-5.188,0.916
-0.194,-0.000,0.944,-7.568,-5.920,0.427
-0.197,0.016,0.943,-3.845,-5.554,0.732
-0.189,0.016,0.954,1.831,-5.066,0.488
-0.178,0.019,0.981,6.226,-3.052,0.671
-0.190,0.016,0.987,5.798,-0.305,1.282
-0.193,0.001,0.987,2.625,1.099,1.587
-0.188,-0.014,0.982,-1.099,1.709,1.404
-0.191,-0.036,0.964,-4.089,2.625,1.770
-0.198,-0.042,0.928,-4.944,3.113,2.869
-0.197,-0.005,0.890,-2.380,2.441,4.272
-0.208,0.024,0.885,4.456,0.916,4.211
-0.210,0.039,0.915,9.705,-1.526,3.113
-0.203,0.055,0.952,9.033,-3.662,2.136
-0.190,0.057,0.987,5.615,-4.395,1.221
-0.192,0.050,1.000,2.258,-3.906,0.305
-0.199,0.044,0.992,1.465,-2.686,-0.366
-0.200,0.030,0.977,4.211,-1.099,-1.282
-0.200,0.017,0.958,7.568,0.000,-2.014
-0.200,-0.001,0.951,7.690,0.366,-2.380
-0.189,-0.015,0.964,4.578,-0.549,-1.709
-0.178,-0.017,0.984,1.404,-2.380,-0.916
-0.173,-0.004,1.004,1.038,-3.174,-0.854
-0.178,-0.001,1.021,2.808,-2.625,-1.221
-0.182,-0.007,1.014,2.686,-0.977,-1.587
-0.180,-0.030,1.001,1.282,0.793,-1.587
-0.182,-0.050,0.987,-0.427,2.625,-0.732
-0.188,-0.062,0.966,-0.610,4.211,0.977
-0.190,-0.055,0.954,2.625,4.944,2.991
-0.189,-0.031,0.943,7.996,4.639,4.211
-0.188,-0.021,0.928,11.230,4.211,4.578

1.109,-0.009,1.485,-29.968,16.052,34.363
1.191,-0.093,1.438,-44.983,24.475,48.096
1.248,-0.087,1.298,-66.162,26.917,67.200
1.268,-0.040,1.130,-77.332,23.437,85.266
1.267,-0.008,0.976,-69.641,16.296,97.778
1.257,0.026,0.854,-50.476,4.211,105.469
1.336,0.006,0.818,-32.532,-12.512,107.849
1.396,-0.011,0.751,-24.292,-28.564,109.863
1.415,0.018,0.642,-27.161,-42.786,112.793
1.408,0.007,0.533,-28.870,-55.298,111.755
1.388,-0.034,0.492,-27.222,-64.697,108.459
1.338,-0.059,0.619,-30.151,-72.327,110.352
1.197,0.069,0.640,-30.762,-66.833,117.798
0.927,0.278,0.479,-9.644,-53.223,119.019
0.623,0.424,0.260,32.166,-39.856,105.774
0.392,0.594,-0.020,61.096,-38.818,86.121
-0.017,0.789,-0.350,53.528,-56.885,68.848
-0.250,0.924,-0.553,22.949,-93.872,44.189
-0.431,0.805,-0.398,2.502,-139.832,8.362
-0.417,0.483,0.130,0.671,-167.297,-21.667
-0.631,0.361,0.419,9.827,-157.043,-31.128
-0.918,0.350,0.589,42.542,-122.864,-32.043
-1.010,0.265,0.883,99.731,-82.153,-39.856
-1.202,0.268,1.013,151.184,-30.762,-45.166
-1.655,0.304,0.776,173.035,31.372,-45.898
-2.192,-0.017,0.390,134.399,74.707,-42.786
-2.509,-0.403,0.164,21.973,76.782,-31.006
-2.754,-0.194,-0.107,-104.736,43.701,-12.695
-2.903,-0.006,-0.013,-141.846,5.920,-17.517
-2.588,-0.233,0.465,-72.327,-42.480,-61.646
-2.302,-0.543,0.996,10.193,-77.087,-98.450
-2.014,-0.624,1.413,40.466,-78.308,-100.891
-1.670,-0.514,1.547,35.706,-65.796,-89.722
-1.369,-0.412,1.615,34.302,-45.105,-75.928
-1.115,-0.311,1.561,57.007,-16.052,-61.951
-1.014,-0.083,1.397,91.064,19.653,-48.950
-0.953,-0.040,1.173,120.972,47.974,-44.983
-0.909,-0.174,0.939,137.512,62.561,-42.419
-0.815,-0.263,0.808,137.634,63.110,-35.217
-0.779,-0.342,0.693,119.629,52.795,-25.085
-0.681,-0.389,0.655,90.820,35.645,-14.343
-0.592,-0.303,0.686,61.401,16.602,-2.991
-0.498,-0.219,0.783,37.781,2.686,4.456
-0.469,-0.088,0.901,13.245,-4.822,8.118
-0.459,0.001,1.036,-15.747,-7.629,8.972
-0.450,0.073,1.117,-48.828,-5.554,8.667
-0.452,0.111,1.131,-76.782,-1.221,8.606
-0.462,0.208,1.060,-86.304,3.479,8.240
-0.451,0.219,0.992,-72.876,7.446,3.601
-0.401,0.162,0.938,-47.668,9.888,-1.953
-0.391,0.128,0.896,-25.269,10.132,-3.113
-0.390,0.074,0.901,-11.414,6.653,-2.563
-0.328,0.025,0.945,-7.507,1.465,-1.282
-0.292,0.040,0.996,-8.423,-0.671,2.502
-0.289,0.061,1.036,-7.202,-0.183,5.432
-0.257,0.068,1.081,-3.967,2.747,6.104
-0.259,0.061,1.062,-3.601,9.033,7.874
-0.244,0.037,1.007,-5.005,15.198,10.071
-0.256,0.026,0.925,-2.075,18.738,12.085
-0.253,0.036,0.845,8.179,19.897,13.428
-0.258,0.054,0.811,23.132,17.822,13.245
-0.234,0.139,0.807,35.217,11.230,11.292
-0.202,0.144,0.849,39.063,2.747,5.310
-0.183,0.100,0.897,30.457,-3.052,-0.916
-0.169,0.052,0.934,11.353,-5.432,-3.479
-0.166,0.018,0.936,-7.446,-4.944,-4.272
-0.173,-0.033,0.923,-18.433,-3.540,-4.761
-0.167,-0.040,0.919,-20.752,-2.869,-3.418
-0.180,0.011,0.922,-18.494,-2.747,-1.099
-0.189,0.059,0.920,-13.672,-3.052,0.244
-0.203,0.090,0.917,-7.751,-3.418,-0.183
-0.228,0.093,0.911,-3.296,-4.456,-0.610
-0.217,0.065,0.928,2.319,-5.737,-1.648
-0.214,0.022,0.954,7.202,-6.226,-1.099
-0.203,-0.011,0.977,9.705,-5.798,0.977
-0.186,-0.015,0.978,10.315,-4.639,2.930
-0.183,-0.012,0.970,12.207,-3.235,4.395
-0.185,0.013,0.949,14.282,-2.014,5.005
-0.209,0.035,0.939,15.625,-1.343,5.188
-0.211,0.053,0.922,13.245,-1.648,5.005
-0.220,0.056,0.899,7.996,-2.502,4.822
-0.211,0.052,0.884,2.563,-3.845,4.150
-0.223,0.065,0.890,-1.526,-6.042,3.723
-0.239,0.074,0.923,-2.441,-8.362,2.502
-0.230,0.078,0.970,-2.319,-10.193,0.122
-0.229,0.064,0.996,-4.272,-10.132,-1.221
-0.231,0.047,0.996,-6.958,-8.545,-1.404
-0.235,0.021,0.981,-7.874,-6.958,-1.160
-0.233,-0.007,0.977,-5.066,-5.493,-0.488
-0.230,-0.013,0.989,-0.549,-4.150,1.282
-0.243,-0.007,1.000,3.235,-2.563,3.174
-0.244,0.008,0.998,6.287,-0.854,4.700
-0.249,0.036,0.977,9.399,1.038,6.165
-0.261,0.065,0.951,14.404,2.625,7.019
-0.263,0.064,0.933,19.043,3.357,6.287
-0.262,0.055,0.924,18.921,3.113,5.554
-0.247,0.037,0.931,13.733,2.197,4.944
-0.236,0.035,0.928,5.798,0.977,4.822
-0.239,0.068,0.930,0.061,-0.854,4.150
-0.241,0.082,0.941,-0.488,-2.380,2.014
-0.249,0.093,0.945,1.099,-2.258,-0.061
-0.261,0.082,0.938,1.404,-1.953,-1.709
-0.273,0.050,0.922,-0.061,-2.380,-2.380
-0.264,0.022,0.934,-1.404,-3.784,-2.014
-0.249,0.040,0.952,-0.610,-4.944,-0.244
-0.251,0.059,0.970,3.174,-4.578,0.671
-0.242,0.061,0.970,7.690,-3.357,-0.061
-0.244,0.061,0.956,8.911,-2.258,-0.061
-0.251,0.053,0.943,6.775,-2.319,0.366
-0.260,0.046,0.942,2.441,-3.967,0.488
-0.260,0.050,0.955,-1.282,-5.798,0.427
-0.265,0.046,0.981,-1.282,-6.775,0.183
-0.261,0.045,1.010,1.038,-6.592,-0.366
-0.264,0.054,1.026,3.235,-4.822,-0.854
-0.266,0.053,1.031,4.578,-3.052,-1.526
-0.258,0.046,1.019,4.211,-1.221,-2.441
-0.259,0.037,0.996,3.784,0.366,-2.930
-0.259,0.004,0.967,3.845,1.221,-3.235
-0.252,-0.009,0.947,2.991,0.732,-3.174

-2.260,0.184,0.467,94.299,76.965,-19.958
-2.778,0.542,0.076,21.973,77.759,-6.409
-3.372,0.621,-0.036,-37.170,28.748,-17.212
-3.358,0.282,0.376,-37.048,-31.189,-69.336
-2.973,-0.008,0.940,-14.221,-68.420,-135.986
-2.267,-0.593,1.378,3.357,-88.318,-181.702
-1.643,-1.002,1.631,7.935,-76.660,-182.129
-1.208,-0.980,1.500,17.090,-45.776,-147.705
-0.958,-0.975,1.237,65.674,-7.629,-109.070
-0.774,-0.908,1.057,134.949,27.283,-74.646
-0.722,-0.648,0.899,185.486,46.326,-42.480
-0.712,-0.422,0.828,195.557,49.744,-19.897
-0.668,-0.240,0.841,158.508,40.588,-4.761
-0.710,0.045,0.841,93.933,24.963,6.836
-0.668,0.198,0.919,36.072,10.010,6.653
-0.612,0.173,1.040,-3.479,1.526,-2.014
-0.553,0.121,1.164,-32.898,0.427,-5.066
-0.514,0.182,1.165,-51.392,4.028,-2.747
-0.510,0.243,1.129,-45.715,13.062,-0.488
-0.498,0.321,1.037,-25.146,21.362,-2.258
-0.476,0.342,0.932,-8.728,27.832,-8.423
-0.482,0.232,0.831,-7.568,29.663,-15.747
-0.456,0.073,0.765,-19.897,24.109,-18.616
-0.391,-0.057,0.749,-34.729,13.672,-18.311
-0.321,-0.172,0.772,-40.710,4.456,-15.442
-0.311,-0.183,0.818,-36.438,-2.258,-9.033
-0.340,-0.085,0.879,-23.376,-6.714,-1.831
-0.349,-0.042,0.975,-8.118,-8.545,2.502
-0.312,0.011,1.069,3.418,-6.897,6.836
-0.310,0.087,1.102,10.010,-0.854,12.512
-0.305,0.121,1.095,18.372,8.789,14.709
-0.263,0.156,1.040,28.503,19.165,14.587
-0.252,0.235,0.951,36.133,27.405,13.428
-0.251,0.268,0.872,35.583,29.785,8.301
-0.229,0.222,0.820,21.912,23.560,0.183
-0.221,0.149,0.784,-0.793,14.038,-4.150
-0.215,0.083,0.763,-19.653,3.662,-5.371
-0.217,0.024,0.804,-24.536,-6.226,-4.700
-0.191,0.052,0.913,-16.113,-14.221,-3.235
-0.171,0.122,1.025,-4.089,-16.296,-1.770
-0.192,0.166,1.093,4.700,-12.756,-1.892
-0.203,0.181,1.102,5.310,-7.690,-3.174
-0.209,0.153,1.083,-1.282,-3.357,-4.028
-0.208,0.118,1.045,-11.658,-0.061,-4.517
-0.214,0.104,1.003,-18.433,1.099,-4.456
-0.207,0.068,0.973,-17.700,1.221,-5.676
-0.194,0.029,0.948,-12.329,0.977,-5.615
-0.198,0.035,0.913,-4.517,-0.305,-3.235
-0.202,0.052,0.898,5.371,-1.892,-0.793
-0.202,0.072,0.902,14.404,-3.296,0.854
-0.201,0.090,0.906,19.775,-3.662,1.465
-0.218,0.082,0.905,19.104,-4.089,1.160
-0.213,0.037,0.941,13.428,-5.676,0.122
-0.194,0.027,0.984,5.188,-7.568,0.610
-0.199,0.034,1.000,-0.244,-7.568,2.991
-0.185,0.047,0.996,1.770,-5.249,3.906
-0.179,0.055,0.975,7.690,-1.526,3.662
-0.198,0.064,0.941,12.451,2.014,3.418
-0.210,0.044,0.929,12.634,3.662,2.808
-0.214,0.032,0.909,8.179,3.296,3.052
-0.218,0.017,0.891,3.967,2.136,3.845
-0.219,0.016,0.888,1.892,-0.244,5.127
-0.211,0.045,0.883,2.014,-2.747,5.432
-0.225,0.053,0.889,3.418,-4.150,4.700
-0.220,0.047,0.899,3.784,-5.981,3.296
-0.213,0.042,0.919,2.625,-7.568,2.625
-0.199,0.041,0.948,1.831,-7.935,2.930
-0.202,0.038,0.973,2.197,-7.385,3.113
-0.203,0.032,1.005,2.014,-5.432,3.296
-0.231,0.033,1.010,-0.732,-2.869,4.150
-0.227,0.051,1.002,-3.418,-0.488,4.639
-0.238,0.062,0.988,-3.113,0.732,4.944
-0.229,0.070,0.974,0.549,1.709,4.517
-0.225,0.072,0.958,5.981,2.991,3.845
-0.220,0.055,0.934,9.033,3.967,3.174
-0.228,0.033,0.919,7.629,3.235,3.357
-0.216,0.021,0.920,3.967,1.038,4.028
-0.217,0.049,0.934,2.014,-1.526,5.127
-0.226,0.077,0.955,3.967,-3.174,5.005
-0.232,0.099,0.965,6.836,-3.357,3.723
-0.230,0.102,0.986,8.118,-2.686,2.441
-0.230,0.092,0.994,6.226,-1.099,1.526
-0.233,0.069,0.992,1.282,0.244,1.038
-0.237,0.042,0.986,-2.380,0.854,1.099
-0.230,0.042,0.979,-3.052,1.343,1.465
-0.228,0.063,0.969,-1.099,1.343,1.709
-0.228,0.083,0.955,1.282,0.977,1.221
-0.243,0.093,0.941,2.686,0.610,0.305
-0.248,0.084,0.936,1.282,-0.671,-1.038
-0.254,0.059,0.946,-2.686,-3.113,-1.953
-0.246,0.042,0.972,-7.874,-5.859,-2.258
-0.222,0.025,1.000,-10.681,-7.812,-2.502
-0.202,0.031,1.026,-9.399,-7.141,-2.258
-0.207,0.062,1.030,-7.690,-3.967,-1.099
-0.229,0.100,1.011,-6.836,-0.488,-0.793
-0.251,0.098,0.990,-5.859,2.502,-1.953
-0.254,0.073,0.975,-6.592,3.723,-2.991
-0.249,0.046,0.970,-8.911,3.784,-2.747
-0.233,0.035,0.980,-9.949,2.991,-1.282
-0.221,0.045,0.978,-8.545,3.479,0.366
-0.225,0.052,0.973,-3.418,4.700,0.916
-0.234,0.061,0.961,1.892,5.981,0.854
-0.241,0.069,0.947,5.066,6.836,0.610
-0.242,0.063,0.932,6.226,6.836,0.610
-0.244,0.053,0.917,6.165,5.676,1.404
-0.230,0.040,0.924,7.263,4.333,2.930
-0.217,0.051,0.934,8.423,4.395,5.188
-0.213,0.077,0.935,10.437,4.822,6.958
-0.230,0.086,0.931,13.000,5.371,6.714
-0.227,0.095,0.927,14.221,5.188,5.615
-0.228,0.111,0.921,13.428,4.761,4.517
-0.222,0.093,0.935,11.719,4.578,2.930
-0.223,0.078,0.941,7.629,4.639,2.747
-0.207,0.073,0.943,3.601,4.944,3.235
-0.205,0.068,0.936,2.197,4.944,2.991
-0.207,0.052,0.930,2.808,5.005,2.502
-0.209,0.056,0.912,3.235,5.127,2.441
-0.211,0.051,0.904,3.540,4.517,2.014
-0.206,0.044,0.905,2.563,3.113,1.648
