aX,aY,aZ,gX,gY,gZ
-0.022,1.812,0.812,95.703,-10.742,109.375
0.003,1.884,0.895,75.623,-15.686,106.140
0.045,1.941,0.972,58.533,-16.968,101.563
0.058,1.974,1.008,47.913,-12.756,93.201
0.080,1.997,1.013,44.861,-3.479,81.482
0.092,2.006,0.989,44.189,5.737,68.665
0.086,2.017,0.951,41.077,13.123,56.763
0.094,2.024,0.934,33.020,17.151,47.058
0.100,2.021,0.913,20.508,17.273,39.124
0.117,2.001,0.902,8.301,18.860,30.090
0.151,1.960,0.879,-0.244,21.729,19.165
0.154,1.900,0.835,-9.155,23.926,9.277
0.165,1.809,0.791,-18.005,24.353,0.000
0.200,1.755,0.759,-25.085,25.513,-8.179
0.226,1.678,0.753,-30.457,28.320,-13.855
0.244,1.598,0.727,-36.621,26.978,-20.020
0.243,1.527,0.684,-42.053,25.269,-26.001
0.264,1.457,0.649,-45.349,26.489,-31.982
0.297,1.399,0.646,-49.255,29.358,-36.682
0.325,1.356,0.644,-55.298,30.396,-39.978
0.343,1.301,0.635,-63.965,30.396,-40.955
0.356,1.262,0.619,-73.730,30.273,-40.344
0.360,1.255,0.609,-82.520,29.724,-39.551
0.355,1.267,0.610,-89.966,29.236,-38.879
0.334,1.293,0.598,-96.680,29.968,-39.734
0.326,1.290,0.584,-100.342,33.264,-43.518
0.305,1.243,0.537,-101.929,36.499,-48.706
0.289,1.171,0.488,-99.854,41.504,-54.016
0.277,1.108,0.437,-94.543,45.288,-59.326
0.255,1.061,0.398,-87.463,45.044,-64.636
0.273,1.039,0.390,-81.604,44.617,-69.946
0.294,1.019,0.392,-79.346,41.748,-72.754
0.305,0.973,0.388,-81.909,39.307,-72.632
0.311,0.900,0.397,-87.097,38.330,-69.946
0.303,0.865,0.405,-93.201,38.513,-65.125
0.275,0.881,0.419,-98.083,39.124,-61.401
0.230,0.904,0.382,-103.027,37.720,-59.875
0.203,0.857,0.352,-107.727,39.551,-58.960
0.159,0.806,0.294,-109.314,39.124,-58.716
0.130,0.760,0.255,-105.042,35.950,-61.401
0.102,0.724,0.228,-97.168,32.959,-64.758
0.079,0.651,0.226,-88.074,33.264,-67.627
0.055,0.571,0.220,-77.576,33.386,-69.885
0.009,0.511,0.228,-66.101,35.583,-70.679
-0.036,0.506,0.227,-55.054,34.790,-72.510
-0.069,0.489,0.202,-49.927,29.175,-74.829
-0.081,0.398,0.185,-49.988,27.466,-73.364
-0.085,0.297,0.177,-49.988,26.428,-70.435
-0.093,0.244,0.156,-44.861,19.653,-67.871
-0.099,0.213,0.146,-37.292,14.221,-64.087
-0.107,0.167,0.147,-31.067,9.827,-59.143
-0.143,0.141,0.134,-27.405,2.869,-51.758
-0.191,0.129,0.126,-24.902,-1.831,-42.358
-0.211,0.118,0.117,-21.851,-4.639,-34.180
-0.215,0.114,0.117,-18.555,-8.057,-26.062
-0.230,0.128,0.097,-16.602,-14.404,-17.151
-0.252,0.149,0.088,-15.991,-21.179,-7.019
-0.247,0.193,0.095,-15.137,-27.588,2.319
-0.242,0.242,0.105,-12.268,-33.752,10.071
-0.234,0.306,0.112,-6.287,-37.170,16.663
-0.247,0.386,0.098,1.099,-39.429,20.569
-0.257,0.474,0.089,6.348,-42.847,22.949
-0.255,0.538,0.070,8.301,-48.706,24.475
-0.210,0.593,0.065,10.498,-53.345,24.353
-0.128,0.646,0.056,11.292,-55.054,24.536
-0.077,0.681,0.029,8.362,-56.335,27.222
-0.042,0.721,-0.001,3.845,-57.678,31.189
0.007,0.763,-0.021,-0.977,-60.242,34.424
0.044,0.783,-0.012,-4.700,-63.538,36.987
0.071,0.832,0.023,-5.920,-67.627,37.415
0.104,0.872,0.067,-4.395,-73.608,34.302
0.153,0.907,0.114,-1.404,-77.942,29.968
0.223,0.919,0.170,2.319,-79.956,23.743
0.278,0.912,0.220,6.592,-80.383,16.785
0.314,0.910,0.262,10.193,-80.078,10.986
0.353,0.928,0.297,12.695,-79.224,5.920
0.413,0.962,0.321,14.038,-77.698,0.488
0.439,1.014,0.311,13.550,-74.463,-3.479
0.427,1.078,0.265,9.094,-72.205,-6.348
0.423,1.105,0.228,0.305,-72.754,-9.277
0.439,1.082,0.203,-8.545,-76.111,-13.245
0.462,1.012,0.194,-10.925,-77.026,-19.470
0.479,0.942,0.176,-4.395,-75.867,-27.405
0.468,0.880,0.128,7.141,-74.097,-36.621
0.464,0.835,0.104,18.127,-73.120,-45.471
0.477,0.811,0.120,22.400,-75.134,-52.368
0.481,0.753,0.151,18.005,-78.003,-55.725
0.535,0.685,0.198,10.376,-79.224,-55.725
0.620,0.658,0.232,5.493,-79.468,-53.894
0.744,0.648,0.248,2.686,-78.979,-51.575
0.854,0.647,0.256,0.977,-74.829,-47.974
0.889,0.654,0.236,-0.183,-68.726,-43.335
0.889,0.665,0.225,0.854,-62.866,-39.551
0.865,0.718,0.219,3.357,-60.059,-38.635
0.859,0.748,0.229,5.676,-58.472,-40.649
0.903,0.775,0.234,5.859,-59.021,-43.518
0.991,0.786,0.245,4.700,-60.547,-46.082
1.082,0.768,0.275,3.296,-61.401,-46.814
1.161,0.754,0.320,3.906,-59.753,-46.021
1.199,0.751,0.368,8.057,-56.274,-44.434
1.206,0.765,0.415,13.611,-52.368,-43.640
1.247,0.829,0.443,19.714,-47.791,-44.678
1.192,0.761,0.510,19.531,-39.551,-40.222
1.156,0.814,0.463,15.930,-43.823,-44.617
1.200,0.778,0.523,16.785,-35.522,-44.495
1.179,0.779,0.496,13.794,-28.625,-40.466
1.153,0.754,0.475,9.521,-25.879,-36.560
1.120,0.731,0.444,6.897,-23.926,-33.203
1.074,0.720,0.444,5.188,-22.705,-29.236
1.036,0.697,0.474,5.310,-18.433,-25.635
0.999,0.706,0.506,7.507,-13.611,-23.010
0.959,0.719,0.511,9.338,-8.179,-21.179
0.919,0.719,0.497,8.667,-2.502,-18.982
0.898,0.714,0.460,5.981,2.441,-15.930
0.877,0.702,0.420,2.319,6.531,-12.085
0.842,0.690,0.376,-0.854,9.216,-8.057
0.807,0.683,0.337,-2.319,10.010,-4.578
0.766,0.688,0.313,-2.991,10.132,-2.747
0.728,0.692,0.298,-3.418,9.644,-1.221

0.242,1.721,0.825,124.329,-48.584,149.841
0.262,1.871,0.888,123.047,-44.128,141.724
0.304,2.042,0.978,112.915,-42.175,135.742
0.358,2.201,1.057,92.529,-41.382,132.446
0.401,2.295,1.122,69.885,-37.598,128.967
0.446,2.399,1.170,52.856,-29.114,122.620
0.466,2.476,1.159,41.016,-17.578,111.511
0.499,2.535,1.152,31.860,-3.235,96.436
0.520,2.587,1.116,17.822,9.277,85.388
0.518,2.530,1.146,-0.854,17.090,75.195
0.466,2.481,1.030,-18.372,15.564,62.683
0.445,2.415,0.963,-27.649,26.917,46.753
0.422,2.296,0.883,-30.457,37.109,29.419
0.442,2.178,0.852,-31.433,47.058,12.024
0.425,2.063,0.774,-35.522,47.058,-1.404
0.419,1.932,0.744,-42.419,46.631,-11.169
0.395,1.797,0.702,-48.889,45.532,-20.508
0.398,1.670,0.656,-54.321,45.410,-29.663
0.398,1.541,0.619,-59.753,49.011,-36.133
0.385,1.434,0.577,-65.979,51.147,-39.734
0.356,1.369,0.546,-72.449,49.561,-41.443
0.323,1.334,0.516,-80.688,46.326,-42.664
0.307,1.305,0.512,-89.844,43.701,-43.457
0.297,1.293,0.506,-95.581,41.565,-45.349
0.279,1.278,0.492,-96.558,39.001,-50.415
0.263,1.232,0.481,-93.750,38.696,-56.885
0.252,1.213,0.460,-87.097,43.213,-64.331
0.263,1.157,0.439,-79.895,51.392,-72.266
0.256,1.063,0.390,-77.148,55.725,-77.209
0.243,0.960,0.349,-77.698,56.763,-79.041
0.215,0.890,0.315,-81.665,55.054,-77.576
0.181,0.858,0.262,-89.539,48.889,-74.829
0.163,0.799,0.217,-98.083,42.114,-72.571
0.143,0.699,0.193,-102.234,36.377,-71.960
0.135,0.591,0.202,-97.717,34.912,-73.181
0.142,0.465,0.206,-84.595,37.231,-74.524
0.120,0.391,0.208,-68.848,41.687,-73.364
0.064,0.371,0.181,-55.603,41.870,-72.449
0.065,0.349,0.159,-49.683,39.124,-72.327
0.084,0.276,0.140,-48.828,36.011,-70.190
0.084,0.211,0.098,-46.814,31.982,-65.430
0.073,0.192,0.080,-40.833,26.550,-61.279
0.055,0.228,0.061,-34.424,19.531,-57.678
0.061,0.213,0.087,-31.433,14.832,-53.955
0.080,0.203,0.101,-28.809,10.620,-49.988
0.097,0.238,0.111,-22.217,11.169,-45.166
0.084,0.286,0.115,-15.198,12.146,-40.283
0.059,0.322,0.090,-10.986,7.019,-35.339
0.038,0.352,0.105,-6.958,4.578,-30.090
0.022,0.397,0.135,-1.709,1.343,-26.611
0.013,0.453,0.178,2.991,-3.906,-24.902
-0.000,0.506,0.207,6.165,-9.827,-23.437
-0.027,0.540,0.247,8.972,-13.794,-21.423
-0.068,0.558,0.276,11.047,-17.761,-20.020
-0.071,0.566,0.329,11.597,-20.996,-18.433
-0.070,0.573,0.380,7.568,-23.804,-15.076
-0.082,0.588,0.410,-0.305,-26.794,-10.193
-0.090,0.602,0.400,-9.766,-29.785,-6.531
-0.094,0.589,0.385,-17.395,-29.236,-3.418
-0.090,0.590,0.357,-22.034,-30.090,-0.427
-0.070,0.572,0.326,-22.400,-31.189,2.930
-0.033,0.578,0.293,-18.311,-29.175,6.775
-0.033,0.630,0.240,-11.230,-25.269,10.376
-0.057,0.706,0.171,-3.845,-22.339,12.207
-0.052,0.741,0.126,-0.244,-20.569,11.658
-0.054,0.750,0.088,-2.441,-22.949,12.024
-0.059,0.757,0.054,-7.202,-29.175,12.817
-0.048,0.765,0.050,-10.010,-35.767,11.902
-0.017,0.793,0.039,-14.038,-43.518,10.132
0.030,0.777,0.014,-18.005,-50.842,7.996
0.093,0.712,0.010,-17.578,-55.298,5.127
0.155,0.652,0.012,-10.803,-57.617,1.953
0.204,0.642,0.026,-0.244,-58.350,-0.305
0.238,0.696,0.029,7.385,-59.937,-2.441
0.256,0.753,0.014,6.531,-64.880,-2.991
0.295,0.777,-0.018,-3.235,-71.838,-1.404
0.349,0.780,-0.060,-16.235,-79.773,0.244
0.429,0.767,-0.093,-25.330,-87.097,0.793
0.494,0.779,-0.085,-28.503,-90.698,1.587
0.520,0.823,-0.096,-26.550,-92.041,1.465
0.523,0.833,-0.118,-20.996,-94.055,-1.343
0.520,0.829,-0.109,-14.526,-96.985,-5.554
0.497,0.859,-0.084,-8.850,-102.661,-10.925
0.537,0.861,-0.043,-4.883,-108.887,-17.944
0.658,0.802,0.009,-3.235,-113.708,-23.621
0.779,0.747,0.080,-1.038,-116.028,-26.428
0.868,0.751,0.160,3.784,-116.882,-27.710
0.944,0.748,0.226,7.812,-115.784,-29.297
0.992,0.713,0.308,11.475,-109.558,-29.907
0.972,0.723,0.334,12.817,-107.910,-30.579
0.989,0.713,0.382,13.245,-107.422,-33.203
1.074,0.752,0.471,13.000,-105.591,-36.865
1.175,0.758,0.564,10.498,-103.821,-40.466
1.258,0.758,0.634,6.531,-98.633,-40.833
1.321,0.754,0.719,6.409,-90.515,-41.565
1.389,0.811,0.707,8.606,-80.994,-45.837
1.472,0.792,0.742,11.169,-68.420,-40.405
1.242,0.690,0.601,1.831,-62.073,-33.508
1.299,0.702,0.543,0.488,-53.528,-39.917
1.303,0.666,0.571,8.789,-36.194,-38.147
1.244,0.755,0.506,11.414,-31.982,-36.438
1.270,0.740,0.510,10.254,-27.771,-38.147
1.290,0.707,0.491,7.629,-23.376,-39.185
1.263,0.669,0.466,7.629,-19.409,-36.377
1.244,0.684,0.479,11.414,-13.123,-34.851
1.199,0.672,0.488,13.000,-7.874,-32.410
1.144,0.660,0.490,10.010,-3.235,-28.320
1.074,0.649,0.471,6.104,2.625,-23.010
1.008,0.639,0.434,1.648,8.179,-17.700
0.955,0.628,0.398,-2.991,12.573,-12.451
0.910,0.623,0.358,-7.935,15.381,-7.629
0.865,0.623,0.314,-11.047,16.174,-3.479
0.828,0.629,0.280,-12.146,16.296,-1.160
0.798,0.629,0.260,-10.071,16.541,-0.366
0.778,0.626,0.257,-5.066,17.334,-0.854
0.749,0.628,0.255,0.427,19.226,-1.587
0.718,0.639,0.250,4.456,20.508,-1.343
0.695,0.647,0.253,5.371,20.447,-0.122
0.668,0.672,0.261,3.784,19.897,2.075

0.187,1.348,1.061,132.385,-57.068,198.120
0.203,1.438,1.046,143.860,-42.236,186.707
0.230,1.649,1.085,145.874,-38.818,180.908
0.282,1.873,1.191,133.118,-39.856,180.115
0.347,2.081,1.266,110.596,-39.124,180.237
0.386,2.194,1.260,90.759,-32.593,176.270
0.402,2.276,1.236,81.299,-22.583,166.565
0.428,2.400,1.227,76.538,-13.428,152.954
0.454,2.523,1.243,68.054,-5.188,139.526
0.551,2.584,1.341,53.833,4.089,127.380
0.510,2.682,1.246,35.156,3.052,116.150
0.509,2.725,1.223,19.226,16.602,103.638
0.565,2.693,1.197,9.888,36.804,84.412
0.537,2.629,1.087,-0.549,42.542,65.063
0.520,2.544,1.030,-12.085,49.622,50.659
0.426,2.423,0.912,-24.414,52.979,36.316
0.436,2.274,0.888,-32.349,59.875,21.179
0.405,2.153,0.831,-38.147,63.721,7.446
0.388,2.036,0.794,-44.617,62.073,-4.944
0.388,1.912,0.773,-53.284,58.105,-16.113
0.434,1.775,0.863,-63.477,54.688,-24.231
0.202,1.659,0.621,-75.378,55.969,-30.334
0.348,1.508,0.700,-74.219,86.609,-44.800
0.413,1.426,0.654,-70.435,85.815,-51.331
0.263,1.339,0.563,-81.787,65.002,-46.204
0.200,1.296,0.454,-96.924,51.758,-45.471
0.186,1.205,0.400,-104.431,61.401,-46.936
0.185,1.139,0.354,-105.103,72.327,-51.086
0.157,1.088,0.263,-102.478,67.688,-57.739
0.110,1.014,0.224,-99.060,58.411,-63.538
0.078,0.906,0.228,-97.046,49.500,-68.665
0.098,0.804,0.278,-93.689,44.250,-72.144
0.061,0.733,0.268,-88.745,43.457,-74.158
0.020,0.675,0.239,-85.266,43.823,-75.317
0.003,0.597,0.236,-84.351,44.495,-74.219
-0.032,0.508,0.217,-85.632,42.664,-69.885
-0.073,0.442,0.203,-85.999,40.100,-65.002
-0.112,0.403,0.178,-83.557,37.048,-62.378
-0.157,0.337,0.136,-78.247,32.104,-62.012
-0.183,0.248,0.137,-66.956,28.137,-63.049
-0.194,0.213,0.118,-49.377,22.461,-66.895
-0.173,0.182,0.145,-32.349,17.822,-69.458
-0.185,0.175,0.131,-21.912,12.390,-67.139
-0.148,0.140,0.167,-17.456,10.437,-61.401
-0.136,0.162,0.173,-17.639,3.784,-53.711
-0.158,0.198,0.154,-20.935,-1.953,-41.931
-0.176,0.243,0.154,-25.330,0.244,-30.457
-0.179,0.302,0.166,-29.724,-1.160,-20.996
-0.194,0.351,0.146,-32.043,-7.446,-13.489
-0.232,0.370,0.131,-30.273,-12.939,-7.690
-0.235,0.396,0.150,-23.621,-16.113,-5.432
-0.218,0.433,0.164,-14.954,-22.705,-6.287
-0.221,0.498,0.169,-7.568,-28.442,-6.226
-0.191,0.571,0.184,-3.906,-32.532,-5.249
-0.160,0.609,0.197,-7.812,-36.316,-2.258
-0.149,0.636,0.194,-17.273,-42.358,4.456
-0.144,0.674,0.186,-25.146,-46.387,11.536
-0.146,0.693,0.181,-27.832,-46.997,15.747
-0.159,0.704,0.155,-25.635,-49.683,15.991
-0.159,0.701,0.131,-19.897,-52.002,13.367
-0.124,0.699,0.098,-12.329,-53.284,8.972
-0.055,0.656,0.082,-5.066,-54.688,3.601
-0.002,0.599,0.082,1.282,-58.411,-0.610
0.054,0.568,0.080,5.737,-61.707,-2.197
0.113,0.527,0.056,8.850,-62.744,-2.441
0.131,0.512,0.003,7.568,-63.599,1.343
0.107,0.564,-0.091,2.319,-66.406,7.690
0.102,0.620,-0.200,-3.235,-72.327,10.986
0.128,0.631,-0.300,-6.897,-79.712,11.597
0.153,0.622,-0.362,-6.287,-89.844,9.827
0.164,0.644,-0.348,0.732,-101.379,6.531
0.180,0.674,-0.302,12.329,-112.732,1.404
0.228,0.705,-0.189,24.780,-122.681,-4.944
0.276,0.754,-0.077,32.715,-131.836,-11.230
0.357,0.826,0.036,36.560,-137.878,-17.944
0.456,0.821,0.134,36.133,-141.479,-24.170
0.566,0.774,0.203,33.264,-142.639,-27.954
0.667,0.736,0.296,33.630,-140.747,-30.701
0.742,0.757,0.410,35.339,-139.587,-32.471
0.768,0.799,0.495,33.447,-140.137,-31.860
0.850,0.845,0.651,29.724,-135.925,-31.067
0.921,0.886,0.750,24.414,-136.353,-32.593
1.004,0.866,0.836,21.912,-133.728,-35.645
1.111,0.844,0.917,26.245,-125.366,-41.565
1.216,0.818,1.001,34.119,-114.685,-48.706
1.226,0.844,0.993,37.659,-104.797,-54.382
1.340,0.806,1.087,37.415,-85.693,-49.194
1.221,0.746,1.073,22.339,-77.515,-41.382
1.187,0.852,0.924,4.883,-87.708,-41.931
1.234,0.802,0.968,-1.587,-64.148,-37.170
1.226,0.796,0.859,-7.080,-52.917,-33.875
1.226,0.750,0.783,-7.629,-48.035,-34.546
1.233,0.734,0.756,-2.136,-38.330,-35.645
1.234,0.749,0.747,2.869,-28.259,-35.034
1.213,0.772,0.733,4.578,-19.409,-32.959
1.164,0.780,0.708,1.404,-12.573,-29.053
1.090,0.789,0.671,-2.502,-6.470,-24.536
1.019,0.803,0.631,-4.883,-1.160,-22.339
0.962,0.764,0.586,-6.226,3.357,-21.545
0.910,0.712,0.530,-5.981,7.385,-21.057
0.868,0.688,0.480,-3.418,10.071,-21.240
0.843,0.674,0.447,-0.244,11.963,-21.851
0.833,0.657,0.435,1.892,12.756,-21.240
0.816,0.653,0.433,3.052,13.123,-19.043
0.793,0.655,0.434,3.906,14.038,-16.479
0.751,0.664,0.427,4.822,15.869,-14.160
0.715,0.665,0.412,4.333,17.456,-12.451
0.680,0.671,0.400,2.197,19.165,-10.193
0.660,0.671,0.385,-0.427,19.958,-8.057
0.643,0.662,0.376,-2.502,20.996,-6.042
0.623,0.654,0.360,-3.662,21.729,-4.150
0.601,0.656,0.340,-4.944,21.423,-2.686
0.581,0.668,0.313,-6.042,20.142,-1.221
0.567,0.669,0.289,-7.446,17.944,0.183
0.561,0.664,0.276,-7.568,15.442,1.282
0.550,0.665,0.264,-5.615,12.695,1.526
0.537,0.667,0.267,-3.540,9.888,1.282
0.535,0.675,0.296,-1.526,7.690,0.977
0.531,0.695,0.337,0.488,7.141,0.793

0.164,1.652,1.111,136.047,-63.416,181.946
0.197,1.839,1.157,126.831,-56.274,177.063
0.230,2.046,1.197,111.328,-53.223,173.706
0.274,2.214,1.221,94.116,-49.744,166.931
0.286,2.251,1.188,80.017,-43.213,155.762
0.287,2.216,1.119,74.951,-34.241,140.930
0.304,2.242,1.097,75.378,-25.574,125.427
0.297,2.269,1.085,68.787,-20.508,114.075
0.310,2.321,1.114,54.077,-18.372,106.201
0.347,2.431,1.174,33.569,-17.944,100.342
0.368,2.525,1.202,11.475,-15.991,93.689
0.386,2.584,1.212,-4.456,-8.362,81.055
0.435,2.637,1.228,-13.428,2.380,63.354
0.448,2.658,1.233,-22.461,12.451,46.021
0.439,2.643,1.232,-36.499,18.677,29.785
0.436,2.635,1.166,-52.551,26.062,13.794
0.483,2.508,1.173,-64.392,41.321,-0.854
0.488,2.455,1.040,-74.829,46.936,-17.029
0.486,2.287,0.961,-80.383,48.218,-32.532
0.430,2.129,0.793,-87.891,47.729,-45.837
0.438,1.920,0.696,-94.971,48.096,-58.411
0.428,1.728,0.621,-102.417,49.683,-66.040
0.379,1.593,0.549,-110.046,43.030,-70.801
0.312,1.450,0.490,-115.540,33.447,-75.745
0.281,1.295,0.514,-117.615,23.254,-81.604
0.289,1.114,0.599,-112.549,17.639,-89.539
0.301,0.987,0.680,-98.816,20.935,-98.633
0.247,0.887,0.658,-85.144,31.067,-106.567
0.229,0.740,0.612,-79.712,44.189,-109.314
0.188,0.542,0.502,-84.534,52.917,-105.835
0.146,0.379,0.369,-93.323,56.458,-95.520
0.071,0.327,0.253,-101.074,53.589,-81.360
-0.005,0.341,0.190,-106.018,45.776,-69.885
-0.053,0.374,0.112,-108.887,32.776,-65.857
-0.096,0.346,0.071,-108.276,18.677,-65.552
-0.124,0.265,0.086,-100.586,9.521,-67.261
-0.122,0.201,0.143,-82.031,8.850,-71.472
-0.140,0.193,0.185,-57.739,14.038,-78.186
-0.151,0.139,0.216,-39.978,20.752,-83.008
-0.182,0.081,0.166,-33.997,20.691,-82.214
-0.208,0.000,0.111,-35.522,18.433,-76.355
-0.195,-0.066,0.075,-35.889,15.869,-69.458
-0.205,-0.110,0.075,-31.372,7.446,-62.683
-0.251,-0.084,0.017,-27.222,-5.859,-53.284
-0.255,-0.090,0.029,-25.574,-6.714,-42.419
-0.244,-0.097,0.051,-23.499,-10.437,-33.813
-0.252,-0.061,0.059,-20.447,-20.081,-26.428
-0.255,-0.033,0.067,-14.099,-23.743,-18.799
-0.253,-0.024,0.070,-5.249,-26.733,-13.794
-0.246,0.003,0.067,4.211,-30.701,-9.888
-0.229,0.042,0.051,11.169,-36.133,-5.066
-0.215,0.092,0.047,10.864,-42.542,2.380
-0.207,0.160,0.052,2.319,-50.171,14.160
-0.192,0.222,0.057,-11.108,-57.983,27.588
-0.168,0.277,0.057,-22.949,-64.209,39.795
-0.163,0.360,0.046,-28.198,-69.824,48.767
-0.172,0.471,0.017,-26.001,-73.303,53.223
-0.166,0.568,0.000,-19.409,-73.242,53.040
-0.132,0.648,-0.023,-11.047,-75.928,48.645
-0.068,0.710,-0.016,-1.709,-79.529,42.908
-0.016,0.775,0.000,5.981,-83.557,37.903
0.058,0.839,0.044,8.911,-90.088,34.241
0.128,0.905,0.088,9.033,-95.398,31.738
0.176,0.970,0.106,8.606,-98.022,28.687
0.195,1.027,0.120,8.789,-99.548,23.315
0.250,1.043,0.120,10.315,-100.952,15.442
0.352,1.031,0.142,14.404,-99.915,6.226
0.435,1.039,0.155,20.996,-98.083,-2.930
0.514,1.078,0.191,25.452,-98.694,-10.010
0.580,1.087,0.234,22.949,-100.647,-16.418
0.658,1.057,0.294,17.029,-102.539,-20.874
0.703,1.025,0.346,11.780,-104.248,-24.231
0.765,0.991,0.418,10.803,-102.722,-29.236
0.822,0.960,0.480,15.442,-98.145,-37.415
0.910,0.936,0.566,21.606,-91.492,-46.753
0.994,0.904,0.641,23.926,-85.571,-54.504
1.067,0.874,0.671,22.888,-79.163,-59.082
1.138,0.876,0.690,20.081,-71.472,-60.913
1.221,0.863,0.714,17.273,-64.575,-62.744
1.195,0.749,0.670,14.465,-58.899,-63.782
1.364,0.824,0.699,15.503,-53.040,-67.078
1.305,0.773,0.724,12.085,-49.500,-59.387
1.238,0.774,0.645,3.235,-49.561,-61.279
1.311,0.740,0.688,4.883,-40.039,-66.528
1.292,0.767,0.683,9.766,-25.513,-65.369
1.257,0.788,0.636,12.451,-19.287,-65.918
1.245,0.757,0.599,12.085,-12.451,-68.298
1.225,0.706,0.547,9.766,-6.042,-67.749
1.203,0.631,0.500,8.118,-0.427,-65.063
1.179,0.568,0.480,7.629,3.113,-60.608
1.135,0.557,0.476,7.019,5.493,-54.443
1.077,0.572,0.456,4.211,6.775,-47.180
1.016,0.581,0.428,-2.625,5.920,-39.856
0.983,0.559,0.401,-10.132,5.005,-33.569
0.945,0.547,0.366,-12.756,5.066,-28.748
0.904,0.546,0.324,-10.681,5.188,-26.978
0.890,0.537,0.305,-6.714,4.883,-26.184
0.876,0.520,0.313,-3.601,5.920,-24.292
0.855,0.511,0.334,-0.061,7.812,-21.973
0.824,0.521,0.349,2.930,10.864,-18.799
0.779,0.554,0.346,3.967,13.611,-15.198
0.750,0.567,0.335,2.136,14.404,-12.146
0.732,0.557,0.317,-1.343,13.916,-9.216
0.719,0.546,0.299,-4.883,12.695,-5.859
0.708,0.537,0.286,-5.920,10.925,-3.601
0.698,0.539,0.281,-4.028,9.216,-2.380
0.688,0.548,0.285,-1.526,8.057,-1.160
0.675,0.568,0.296,0.854,6.592,-0.427
0.661,0.590,0.307,2.869,5.310,-0.061
0.651,0.615,0.314,2.991,4.089,0.671
0.638,0.624,0.307,1.465,2.869,1.892
0.636,0.617,0.297,0.183,1.953,2.808
0.636,0.606,0.299,0.061,1.587,3.174
0.629,0.604,0.306,1.038,1.526,3.174
0.623,0.602,0.306,2.563,1.465,2.625
0.626,0.596,0.315,3.235,1.587,2.014
0.625,0.596,0.320,3.662,1.892,2.319
0.624,0.601,0.320,4.517,1.648,2.380
0.627,0.613,0.327,4.639,1.343,2.197

-0.012,1.847,1.447,132.385,-131.470,257.202
0.083,2.089,1.602,115.540,-122.131,253.784
0.158,2.229,1.680,111.511,-102.844,243.164
0.209,2.348,1.661,118.164,-78.796,225.586
0.255,2.434,1.611,122.070,-55.786,205.811
0.293,2.568,1.625,112.488,-41.077,192.444
0.302,2.730,1.626,85.938,-34.363,185.242
0.440,2.798,1.730,56.335,-23.193,176.941
0.427,2.969,1.619,32.104,-23.437,161.987
0.367,3.040,1.523,13.733,-6.897,145.020
0.471,2.990,1.483,4.456,18.799,117.920
0.484,2.951,1.407,-3.540,28.198,91.980
0.367,2.884,1.239,-11.108,35.156,69.275
0.430,2.787,1.216,-15.991,47.485,45.349
0.322,2.646,1.092,-27.039,50.598,25.146
0.374,2.504,1.073,-36.194,53.650,3.479
0.299,2.345,1.009,-45.715,55.359,-10.681
0.258,2.227,0.948,-57.190,55.603,-25.391
0.242,2.040,0.888,-66.040,60.547,-41.992
0.232,1.839,0.841,-72.144,69.336,-56.213
0.221,1.697,0.796,-74.280,77.393,-68.176
0.189,1.576,0.727,-75.745,81.604,-78.491
0.162,1.439,0.652,-80.322,83.435,-86.243
0.140,1.304,0.588,-87.891,83.069,-91.064
0.125,1.222,0.550,-96.985,78.247,-92.590
0.089,1.158,0.503,-106.445,70.923,-92.224
0.026,1.116,0.472,-113.647,64.819,-93.628
-0.010,1.047,0.465,-117.615,57.129,-96.008
-0.031,0.983,0.467,-115.967,50.049,-99.854
-0.032,0.880,0.483,-105.713,54.871,-107.422
-0.079,0.774,0.468,-90.820,59.937,-114.990
-0.102,0.707,0.427,-76.721,66.284,-121.277
-0.115,0.612,0.386,-65.918,72.571,-125.732
-0.137,0.489,0.323,-61.707,73.792,-126.038
-0.165,0.372,0.261,-62.439,71.411,-121.399
-0.186,0.281,0.197,-64.941,65.918,-114.441
-0.216,0.180,0.134,-66.467,58.167,-106.323
-0.260,0.106,0.067,-66.040,47.180,-98.511
-0.280,0.052,0.032,-61.829,34.241,-93.201
-0.311,0.018,0.046,-55.298,19.531,-90.698
-0.257,-0.048,0.103,-44.678,7.690,-85.388
-0.210,-0.079,0.175,-30.334,3.967,-78.918
-0.203,-0.067,0.177,-17.273,2.502,-70.923
-0.195,-0.039,0.153,-8.057,4.333,-61.523
-0.243,-0.007,0.097,-5.432,3.845,-51.025
-0.308,0.060,0.044,-7.874,-1.343,-38.879
-0.294,0.113,0.041,-10.437,-9.888,-28.992
-0.273,0.158,0.084,-14.465,-22.949,-19.043
-0.317,0.236,0.053,-22.644,-41.016,-7.141
-0.299,0.276,0.076,-29.541,-47.485,2.014
-0.277,0.273,0.075,-30.945,-52.063,6.592
-0.298,0.287,0.057,-25.391,-59.326,8.545
-0.302,0.298,0.071,-13.367,-62.927,8.423
-0.309,0.302,0.064,-0.916,-68.542,5.859
-0.308,0.276,0.042,8.972,-76.172,3.235
-0.302,0.267,0.038,17.151,-83.618,2.930
-0.281,0.273,0.046,21.851,-93.567,3.906
-0.242,0.290,0.060,19.104,-104.187,7.874
-0.199,0.328,0.064,11.353,-113.953,15.320
-0.132,0.405,0.081,6.165,-122.131,21.301
-0.065,0.495,0.081,6.409,-125.366,23.804
-0.013,0.566,0.045,8.240,-125.549,23.376
0.037,0.635,0.003,9.766,-126.343,22.583
0.114,0.714,-0.009,11.169,-128.723,21.057
0.182,0.789,-0.026,10.498,-134.705,18.738
0.271,0.876,-0.008,7.996,-140.930,17.517
0.340,1.009,0.041,7.263,-148.010,15.015
0.428,1.108,0.114,9.888,-157.410,7.019
0.569,1.139,0.267,17.700,-161.987,-4.211
0.671,1.103,0.410,29.114,-161.011,-16.846
0.782,1.036,0.553,41.931,-154.175,-28.442
0.890,0.966,0.706,52.124,-145.386,-37.537
0.968,0.891,0.839,54.321,-139.465,-42.480
1.051,0.883,0.970,48.401,-133.850,-42.664
1.135,0.908,1.099,39.063,-130.554,-42.114
1.172,0.782,1.250,28.503,-127.258,-41.748
1.324,0.897,1.231,23.254,-121.948,-48.157
1.527,0.759,1.470,28.564,-94.971,-40.833
1.355,0.667,1.363,23.682,-91.064,-40.161
1.337,0.766,1.243,28.259,-96.069,-50.110
1.325,0.772,1.278,36.011,-59.937,-47.485
1.277,0.841,1.215,31.616,-44.434,-46.082
1.226,0.848,1.164,22.339,-40.710,-46.631
1.215,0.832,1.112,13.733,-31.616,-46.509
1.210,0.768,1.062,8.789,-18.494,-46.265
1.224,0.671,1.019,7.568,-4.700,-44.678
1.170,0.619,0.935,7.385,4.272,-40.405
1.097,0.624,0.846,6.348,12.390,-34.912
1.047,0.643,0.787,2.625,19.714,-29.541
0.974,0.657,0.733,-7.324,22.949,-22.034
0.885,0.666,0.682,-18.494,22.705,-14.648
0.821,0.680,0.651,-25.269,22.156,-10.803
0.751,0.672,0.616,-26.733,23.682,-10.193
0.692,0.661,0.559,-23.621,25.696,-12.817
0.655,0.638,0.511,-18.555,26.489,-17.151
0.644,0.598,0.490,-12.695,26.917,-20.752
0.638,0.547,0.464,-6.409,27.954,-23.315
0.626,0.509,0.425,-1.160,29.236,-23.743
0.611,0.496,0.398,1.465,28.992,-21.912
0.598,0.494,0.391,-0.183,26.306,-18.250
0.577,0.505,0.380,-5.981,22.644,-12.634
0.556,0.510,0.365,-12.756,18.921,-6.653
0.529,0.513,0.361,-15.869,14.893,-3.357
0.517,0.522,0.373,-14.954,12.207,-2.258
0.517,0.538,0.402,-10.254,11.719,-2.563
0.520,0.566,0.434,-4.456,12.512,-2.991
0.511,0.596,0.436,-1.282,14.038,-3.418
0.506,0.614,0.424,-1.221,15.137,-3.662
0.504,0.618,0.401,-3.418,14.587,-3.113
0.501,0.615,0.382,-5.798,12.634,-2.808
0.491,0.614,0.372,-6.287,10.193,-2.747
0.487,0.609,0.354,-5.371,7.202,-2.991
0.481,0.596,0.361,-4.456,4.395,-3.601
0.491,0.606,0.390,-4.272,2.625,-4.028
0.502,0.625,0.428,-3.479,1.099,-4.150
0.516,0.648,0.451,-3.296,0.793,-4.456
0.524,0.656,0.460,-3.479,1.648,-4.700
0.527,0.655,0.457,-3.479,2.747,-5.005
0.528,0.645,0.443,-2.380,4.028,-6.226

0.234,1.512,1.177,105.286,-99.731,202.148
0.282,1.615,1.238,92.834,-87.585,198.303
0.279,1.625,1.200,89.478,-70.801,190.918
0.263,1.622,1.131,92.529,-55.237,180.664
0.242,1.705,1.119,95.093,-46.509,172.058
0.228,1.857,1.159,88.440,-45.654,166.260
0.270,2.026,1.250,74.280,-45.898,161.011
0.342,2.134,1.460,55.725,-48.157,155.640
0.276,2.307,1.432,34.241,-57.434,147.644
0.360,2.315,1.562,24.536,-28.015,134.888
0.425,2.430,1.534,19.043,-7.385,115.845
0.397,2.430,1.470,12.024,3.296,99.060
0.406,2.505,1.379,-0.916,12.390,83.252
0.421,2.457,1.339,-12.512,23.437,68.237
0.418,2.432,1.268,-24.475,29.541,52.185
0.409,2.350,1.217,-32.776,36.255,34.607
0.388,2.252,1.144,-39.490,43.823,16.541
0.368,2.107,1.077,-44.861,51.758,-0.366
0.355,1.989,1.023,-49.438,57.068,-14.526
0.356,1.861,0.993,-56.091,59.509,-27.039
0.346,1.709,0.958,-64.148,62.622,-36.194
0.338,1.583,0.903,-71.289,65.430,-43.884
0.317,1.489,0.847,-76.721,66.406,-50.842
0.285,1.421,0.796,-82.764,65.918,-56.458
0.263,1.347,0.770,-88.928,64.758,-60.852
0.241,1.273,0.758,-94.055,64.758,-64.575
0.202,1.216,0.734,-97.229,66.406,-68.481
0.164,1.137,0.688,-99.243,67.566,-73.303
0.146,1.044,0.660,-100.464,68.481,-77.881
0.122,0.994,0.627,-100.647,67.810,-81.543
0.094,0.943,0.596,-100.830,65.430,-85.022
0.076,0.904,0.583,-100.830,63.904,-88.196
0.048,0.868,0.564,-100.525,64.209,-91.248
0.007,0.801,0.511,-100.159,63.782,-95.032
-0.021,0.709,0.466,-99.304,66.467,-98.083
-0.052,0.640,0.413,-96.680,69.275,-100.464
-0.094,0.577,0.322,-94.482,68.909,-101.868
-0.138,0.490,0.238,-92.224,67.444,-101.379
-0.187,0.416,0.161,-90.088,65.674,-99.548
-0.222,0.339,0.114,-86.487,59.631,-98.572
-0.224,0.258,0.106,-78.918,51.758,-98.694
-0.209,0.160,0.127,-65.552,46.021,-98.877
-0.168,0.112,0.161,-47.241,42.358,-99.609
-0.136,0.090,0.178,-30.151,39.978,-98.694
-0.134,0.058,0.157,-22.583,38.208,-92.957
-0.118,-0.002,0.130,-24.292,36.682,-83.130
-0.117,-0.060,0.077,-31.677,30.029,-69.763
-0.136,-0.087,0.026,-38.513,22.461,-53.955
-0.133,-0.039,-0.002,-41.077,11.108,-39.673
-0.130,0.027,0.006,-40.771,-2.502,-27.344
-0.162,0.103,-0.023,-40.649,-14.160,-15.442
-0.133,0.129,-0.023,-39.795,-18.860,-6.775
-0.094,0.135,-0.034,-35.217,-24.170,-2.991
-0.084,0.158,-0.059,-27.649,-28.442,1.465
-0.117,0.213,-0.101,-18.005,-30.212,6.836
-0.161,0.293,-0.157,-8.179,-35.645,8.667
-0.167,0.339,-0.169,-0.610,-45.654,7.935
-0.162,0.368,-0.151,-0.977,-59.448,9.277
-0.150,0.383,-0.126,-7.385,-75.256,13.672
-0.102,0.377,-0.086,-13.245,-88.684,17.395
-0.065,0.374,-0.056,-14.648,-98.450,20.386
-0.034,0.399,-0.038,-11.902,-102.905,23.621
-0.021,0.474,-0.040,-6.958,-105.713,25.574
0.001,0.586,-0.047,-1.221,-107.483,26.001
0.019,0.698,-0.076,3.357,-107.727,24.902
0.030,0.777,-0.120,3.418,-110.840,23.010
0.075,0.822,-0.150,-0.366,-116.211,20.386
0.120,0.822,-0.185,-3.601,-122.742,16.785
0.171,0.826,-0.190,-3.845,-129.211,12.573
0.230,0.906,-0.130,-1.099,-137.512,8.118
0.252,1.011,-0.051,1.648,-147.095,2.930
0.270,1.089,0.033,1.770,-154.907,-3.296
0.304,1.105,0.124,1.648,-160.156,-11.536
0.389,1.033,0.187,4.150,-163.330,-24.109
0.528,0.880,0.266,8.667,-162.720,-36.438
0.659,0.781,0.402,13.733,-161.377,-43.335
0.788,0.783,0.595,8.911,-164.429,-42.847
0.869,0.817,0.818,-9.949,-168.213,-34.241
0.932,0.851,1.030,-31.006,-170.288,-23.865
1.015,0.896,1.207,-39.856,-164.368,-20.203
1.023,0.803,1.295,-33.508,-148.499,-23.682
1.255,0.930,1.327,-14.465,-129.089,-37.659
1.328,0.824,1.389,1.953,-109.741,-37.903
1.220,0.779,1.234,1.465,-100.098,-42.969
1.275,0.724,1.218,5.737,-86.731,-50.842
1.261,0.710,1.201,11.841,-63.721,-49.744
1.205,0.713,1.138,15.259,-51.941,-47.485
1.174,0.707,1.080,18.311,-41.199,-49.561
1.160,0.690,1.009,20.935,-30.518,-53.284
1.150,0.632,0.943,23.865,-18.738,-55.054
1.140,0.605,0.880,26.794,-8.972,-54.382
1.100,0.591,0.811,28.870,-0.977,-53.406
1.061,0.574,0.737,28.687,7.019,-50.415
1.006,0.563,0.664,23.743,11.597,-44.617
0.955,0.568,0.620,15.381,12.451,-37.354
0.909,0.592,0.595,6.042,12.939,-30.090
0.860,0.599,0.560,-0.916,14.160,-24.475
0.827,0.590,0.524,-3.540,16.663,-21.606
0.803,0.590,0.481,-2.502,19.165,-20.142
0.793,0.578,0.451,0.244,21.912,-20.020
0.776,0.562,0.414,2.747,24.536,-19.165
0.755,0.551,0.381,4.150,25.696,-17.212
0.727,0.552,0.368,3.845,25.085,-14.526
0.704,0.555,0.360,2.686,22.949,-11.292
0.677,0.562,0.355,1.648,20.508,-7.874
0.664,0.559,0.357,0.671,18.005,-5.493
0.649,0.559,0.359,-0.488,15.259,-3.601
0.641,0.558,0.365,-0.916,12.756,-2.258
0.630,0.559,0.369,0.000,11.475,-1.343
0.618,0.568,0.378,2.747,11.047,-1.282
0.607,0.573,0.383,6.287,10.864,-2.136
0.601,0.565,0.386,9.033,10.620,-2.991
0.583,0.558,0.382,10.681,9.888,-3.174
0.569,0.552,0.383,10.315,8.545,-2.686
0.568,0.546,0.392,7.202,6.958,-0.916
0.585,0.550,0.415,3.784,5.005,1.587
0.592,0.558,0.439,1.343,4.456,4.639
0.595,0.569,0.446,0.427,5.981,7.202
0.586,0.583,0.433,1.099,7.935,8.484

0.180,1.454,1.193,106.445,-82.642,191.284
0.211,1.538,1.256,100.952,-72.021,186.340
0.233,1.654,1.291,94.849,-61.340,180.725
0.245,1.779,1.278,86.731,-53.284,175.110
0.269,1.887,1.255,77.271,-46.143,168.152
0.291,1.960,1.221,68.481,-39.185,159.119
0.324,2.008,1.188,62.805,-33.447,148.254
0.351,2.115,1.203,56.641,-29.053,138.306
0.382,2.248,1.251,45.959,-26.550,129.822
0.400,2.438,1.351,29.846,-24.231,122.070
0.417,2.598,1.427,9.827,-19.897,111.206
0.456,2.677,1.442,-5.920,-8.850,93.933
0.486,2.647,1.424,-14.954,7.202,72.876
0.470,2.619,1.268,-21.851,22.583,51.086
0.477,2.438,1.294,-26.123,39.063,32.593
0.403,2.457,1.140,-36.865,38.086,15.137
0.411,2.356,1.184,-47.302,44.800,1.038
0.410,2.294,1.152,-58.594,46.021,-14.404
0.354,2.162,1.073,-70.007,40.771,-29.541
0.316,2.016,1.009,-79.773,44.556,-43.091
0.304,1.862,1.000,-87.341,49.561,-55.603
0.265,1.727,0.990,-92.407,56.519,-66.406
0.214,1.594,0.946,-93.811,63.782,-77.087
0.167,1.465,0.864,-94.177,70.129,-86.792
0.115,1.320,0.783,-96.130,72.144,-94.543
0.061,1.195,0.725,-98.572,70.068,-99.304
0.014,1.109,0.672,-101.685,63.171,-103.638
-0.034,1.000,0.603,-105.835,57.373,-107.483
-0.081,0.853,0.555,-109.009,54.626,-110.657
-0.080,0.719,0.578,-108.765,52.185,-113.464
-0.109,0.625,0.575,-102.417,55.054,-115.784
-0.143,0.566,0.544,-90.820,61.279,-118.164
-0.169,0.512,0.540,-80.933,69.824,-119.995
-0.192,0.479,0.497,-76.111,72.266,-121.704
-0.192,0.431,0.448,-76.538,72.876,-120.850
-0.195,0.364,0.366,-81.848,72.754,-117.554
-0.217,0.278,0.255,-86.609,69.458,-112.854
-0.244,0.165,0.162,-86.487,64.941,-106.934
-0.271,0.096,0.061,-81.116,54.626,-102.234
-0.273,0.006,-0.001,-70.313,43.945,-99.121
-0.270,-0.048,-0.040,-58.350,32.654,-94.910
-0.298,-0.096,-0.079,-48.462,20.630,-87.158
-0.280,-0.128,-0.085,-39.490,8.484,-78.613
-0.220,-0.162,-0.036,-29.236,-1.587,-70.190
-0.250,-0.141,-0.085,-21.484,-13.306,-58.472
-0.241,-0.141,-0.082,-17.578,-12.268,-44.250
-0.207,-0.114,-0.060,-15.991,-16.174,-31.738
-0.224,-0.005,-0.056,-19.165,-28.809,-17.273
-0.219,0.099,-0.027,-23.254,-40.222,-4.883
-0.203,0.163,-0.011,-27.039,-49.500,3.662
-0.172,0.197,-0.008,-29.785,-59.265,9.888
-0.147,0.211,-0.012,-30.029,-67.993,15.808
-0.114,0.245,-0.018,-28.076,-74.951,21.912
-0.108,0.325,-0.023,-23.560,-79.895,27.588
-0.134,0.421,-0.034,-17.456,-83.923,31.189
-0.144,0.518,-0.050,-12.207,-89.172,30.762
-0.113,0.586,-0.070,-9.155,-96.191,27.039
-0.077,0.627,-0.087,-8.667,-103.394,24.597
-0.036,0.651,-0.085,-8.545,-110.291,22.888
0.008,0.658,-0.075,-8.728,-119.141,20.142
0.045,0.635,-0.060,-9.338,-126.892,18.738
0.111,0.649,-0.034,-6.287,-132.080,16.479
0.165,0.737,0.002,0.610,-137.085,13.489
0.199,0.886,0.057,3.662,-142.761,10.986
0.241,1.010,0.098,-0.183,-149.109,6.958
0.293,1.050,0.123,-6.836,-153.259,1.465
0.308,1.029,0.116,-10.437,-156.006,-4.333
0.335,0.958,0.116,-4.822,-157.471,-13.123
0.389,0.905,0.166,11.292,-158.447,-26.794
0.455,0.936,0.295,29.541,-160.889,-39.307
0.495,1.015,0.442,37.964,-168.762,-49.316
0.566,0.996,0.633,35.278,-173.340,-58.533
0.634,0.883,0.784,26.001,-171.631,-66.162
0.709,0.730,0.875,20.325,-164.307,-72.449
0.775,0.588,0.926,21.790,-152.100,-78.064
0.824,0.452,0.940,27.588,-140.564,-83.679
0.960,0.366,0.963,34.302,-128.357,-88.379
1.025,0.275,1.044,37.842,-119.263,-89.905
1.206,0.347,1.198,33.936,-119.263,-82.642
1.065,0.322,1.261,12.329,-123.230,-62.012
1.134,0.413,1.334,-5.493,-117.126,-58.350
1.205,0.342,1.408,-6.531,-97.656,-57.312
1.168,0.349,1.335,-4.150,-77.332,-54.016
1.162,0.302,1.245,3.174,-59.692,-53.101
1.161,0.292,1.147,9.583,-45.105,-52.795
1.176,0.329,1.098,14.038,-36.316,-50.354
1.169,0.408,1.095,15.198,-29.175,-44.556
1.140,0.471,1.079,11.047,-24.292,-38.696
1.105,0.504,1.064,6.531,-17.700,-34.302
1.067,0.513,1.013,3.662,-9.766,-31.921
1.026,0.487,0.938,2.625,-1.221,-30.518
0.995,0.463,0.863,3.113,7.141,-29.236
0.957,0.468,0.802,4.395,13.916,-27.283
0.929,0.493,0.761,6.042,16.785,-25.696
0.901,0.513,0.744,6.531,18.066,-23.987
0.879,0.512,0.727,4.578,18.799,-21.790
0.839,0.510,0.709,1.587,20.325,-18.616
0.817,0.511,0.693,0.122,22.827,-16.174
0.775,0.520,0.662,-0.427,25.391,-14.465
0.762,0.527,0.633,-0.488,28.198,-13.672
0.743,0.512,0.587,0.366,31.433,-13.306
0.718,0.479,0.531,2.136,33.203,-12.634
0.703,0.479,0.504,4.211,32.654,-11.108
0.693,0.490,0.506,6.348,30.518,-9.888
0.676,0.513,0.514,5.859,28.076,-8.301
0.664,0.506,0.512,3.296,25.757,-6.653
0.648,0.498,0.504,-0.244,24.292,-4.639
0.639,0.485,0.501,-1.831,23.071,-3.235
0.635,0.482,0.499,-1.587,22.705,-2.319
0.631,0.482,0.487,-1.160,22.339,-1.282
0.624,0.482,0.481,-0.427,21.667,0.061
0.607,0.483,0.476,0.977,21.240,1.221
0.595,0.497,0.471,2.625,21.179,2.075
0.584,0.504,0.460,3.540,20.508,2.441
0.578,0.508,0.444,3.052,18.921,2.686
0.562,0.505,0.425,1.404,16.724,3.357
0.561,0.504,0.420,1.038,14.038,3.479
0.563,0.506,0.428,1.892,11.169,3.113
0.580,0.509,0.457,2.930,9.155,3.296

0.189,1.421,1.237,135.925,-89.233,188.477
0.240,1.488,1.269,132.507,-78.125,180.176
0.241,1.500,1.246,129.211,-65.125,173.096
0.293,1.652,1.287,123.108,-56.274,169.067
0.315,1.819,1.332,110.840,-52.002,166.382
0.343,1.950,1.364,95.947,-47.485,161.987
0.377,2.062,1.415,83.435,-41.626,154.846
0.377,2.205,1.453,72.388,-36.255,145.935
0.394,2.378,1.470,61.218,-30.823,134.155
0.455,2.450,1.560,48.340,-22.522,118.896
0.429,2.551,1.484,36.255,-18.066,100.159
0.476,2.556,1.474,29.785,5.432,82.275
0.543,2.586,1.459,24.414,21.240,59.448
0.510,2.545,1.433,14.526,25.635,42.297
0.535,2.537,1.422,-0.488,32.898,26.611
0.529,2.456,1.421,-16.479,39.856,12.817
0.505,2.379,1.364,-35.522,44.678,0.000
0.482,2.217,1.298,-50.232,54.199,-13.611
0.442,2.044,1.209,-58.838,66.833,-29.114
0.451,1.849,1.131,-62.805,79.773,-43.518
0.440,1.672,1.054,-67.627,90.576,-53.467
0.406,1.533,0.980,-75.439,96.252,-58.228
0.375,1.422,0.901,-85.144,97.900,-60.242
0.337,1.334,0.835,-96.436,98.816,-62.805
0.287,1.241,0.760,-107.239,95.642,-65.125
0.242,1.148,0.682,-115.356,89.355,-68.604
0.208,1.063,0.630,-119.751,81.543,-72.693
0.155,0.987,0.593,-118.958,73.853,-78.857
0.157,0.899,0.605,-113.342,70.190,-86.365
0.135,0.820,0.596,-103.394,66.711,-94.116
0.096,0.756,0.575,-92.346,65.491,-101.379
0.096,0.659,0.583,-79.773,71.655,-107.544
0.048,0.609,0.548,-69.946,75.317,-111.328
0.007,0.562,0.519,-65.857,79.102,-111.938
-0.013,0.493,0.476,-69.641,81.299,-110.596
-0.061,0.421,0.401,-78.308,82.031,-105.347
-0.102,0.390,0.344,-84.045,82.275,-100.159
-0.150,0.379,0.249,-84.534,77.759,-97.412
-0.171,0.361,0.183,-84.106,73.914,-94.788
-0.191,0.327,0.090,-80.627,65.552,-94.238
-0.209,0.240,0.029,-73.730,60.120,-92.834
-0.222,0.191,0.045,-65.796,52.429,-91.003
-0.203,0.191,0.096,-54.199,43.457,-89.661
-0.171,0.225,0.133,-40.039,37.720,-89.172
-0.142,0.213,0.166,-29.480,33.508,-85.999
-0.154,0.204,0.110,-28.015,23.193,-77.026
-0.172,0.185,0.090,-32.593,21.179,-64.514
-0.149,0.189,0.060,-36.316,18.738,-53.467
-0.175,0.191,0.010,-37.109,12.085,-43.152
-0.224,0.242,-0.051,-36.255,1.648,-33.997
-0.222,0.269,-0.071,-34.424,-6.775,-27.039
-0.239,0.285,-0.103,-33.630,-20.203,-21.179
-0.243,0.286,-0.105,-32.227,-37.109,-15.808
-0.215,0.290,-0.056,-27.771,-52.246,-11.902
-0.191,0.360,0.002,-20.813,-61.523,-8.667
-0.189,0.425,0.023,-14.404,-66.284,-6.042
-0.168,0.479,0.023,-14.771,-71.716,-3.052
-0.137,0.520,0.002,-23.865,-77.087,3.601
-0.140,0.555,-0.056,-35.583,-82.397,12.817
-0.148,0.550,-0.098,-43.823,-85.938,20.691
-0.171,0.537,-0.131,-46.082,-92.224,23.987
-0.170,0.538,-0.136,-42.053,-98.938,23.254
-0.162,0.523,-0.145,-33.875,-104.553,19.165
-0.152,0.498,-0.154,-24.414,-110.474,14.832
-0.110,0.471,-0.139,-15.198,-118.042,11.169
-0.044,0.438,-0.102,-6.348,-126.099,7.996
0.020,0.422,-0.067,-1.221,-131.531,7.324
0.100,0.437,-0.009,0.122,-138.062,10.071
0.165,0.518,0.040,-2.197,-145.264,15.137
0.254,0.580,0.114,-4.211,-151.550,17.944
0.347,0.677,0.176,-3.052,-154.968,16.907
0.470,0.750,0.258,2.014,-154.602,12.817
0.505,0.770,0.302,6.226,-153.015,7.751
0.552,0.746,0.371,10.437,-153.015,1.953
0.617,0.763,0.486,18.005,-151.917,-4.944
0.719,0.819,0.665,23.743,-152.588,-12.085
0.826,0.870,0.859,25.391,-154.419,-20.081
0.988,0.879,1.056,26.245,-151.184,-28.442
1.082,0.857,1.178,27.344,-140.808,-35.889
1.144,0.782,1.200,31.372,-127.075,-44.983
1.187,0.673,1.174,36.255,-110.840,-53.528
1.234,0.580,1.134,38.696,-95.825,-58.838
1.259,0.509,1.110,38.818,-85.144,-59.448
1.248,0.497,1.102,34.851,-78.125,-56.519
1.409,0.626,1.214,31.738,-74.402,-54.260
1.296,0.581,1.244,17.944,-71.594,-41.504
1.287,0.616,1.130,4.883,-65.186,-44.556
1.396,0.500,1.146,10.132,-40.894,-49.316
1.271,0.478,1.019,12.024,-22.156,-42.053
1.186,0.467,0.907,13.428,-13.245,-38.452
1.145,0.440,0.837,15.198,-2.319,-36.621
1.057,0.412,0.748,13.062,2.380,-31.372
1.031,0.456,0.731,12.512,4.333,-27.466
1.008,0.504,0.737,13.611,4.211,-23.865
0.979,0.544,0.727,12.390,4.395,-20.630
0.968,0.544,0.711,9.949,5.005,-18.066
0.929,0.535,0.674,8.057,6.226,-15.503
0.874,0.535,0.628,6.531,9.399,-12.573
0.829,0.545,0.586,5.005,12.085,-11.353
0.794,0.544,0.556,3.052,12.268,-10.071
0.753,0.550,0.532,0.244,11.108,-7.690
0.724,0.563,0.526,-1.831,9.338,-5.920
0.724,0.571,0.528,-2.625,7.202,-5.493
0.721,0.566,0.522,-1.892,6.409,-5.554
0.699,0.564,0.504,-0.671,6.592,-5.432
0.676,0.550,0.490,2.258,7.385,-5.859
0.652,0.541,0.481,4.944,8.728,-6.104
0.642,0.529,0.475,7.263,10.010,-6.287
0.628,0.517,0.474,8.362,10.559,-5.127
0.612,0.534,0.477,7.935,10.193,-3.418
0.604,0.565,0.484,6.897,8.606,-2.258
0.609,0.579,0.504,5.127,6.958,-1.648
0.607,0.570,0.507,3.784,6.836,-1.709
0.600,0.561,0.496,3.967,7.324,-2.258
0.585,0.551,0.475,5.554,7.141,-2.869
0.584,0.541,0.471,6.470,6.531,-3.601
0.597,0.533,0.484,6.775,5.676,-4.089
0.604,0.526,0.488,7.324,6.226,-3.784
0.605,0.529,0.481,7.385,6.714,-3.357

0.545,1.408,1.268,107.605,-117.432,197.388
0.639,1.526,1.393,101.990,-104.431,186.829
0.691,1.557,1.425,102.600,-84.351,171.936
0.717,1.575,1.384,103.210,-64.087,158.875
0.740,1.637,1.378,98.328,-48.828,150.635
0.747,1.771,1.406,85.022,-40.222,147.766
0.769,1.911,1.452,66.528,-33.508,145.325
0.766,1.990,1.449,50.232,-24.292,138.916
0.762,2.024,1.411,40.955,-11.108,127.075
0.772,2.029,1.333,38.330,4.761,112.061
0.767,2.053,1.324,36.377,16.235,97.595
0.702,2.146,1.261,28.320,18.738,85.876
0.786,2.243,1.348,15.320,32.776,76.599
0.676,2.231,1.257,-1.099,36.194,65.491
0.709,2.287,1.225,-12.634,43.152,50.110
0.705,2.264,1.185,-21.179,53.711,36.621
0.660,2.197,1.134,-31.433,55.298,21.606
0.645,2.100,1.131,-39.368,60.181,5.188
0.589,1.937,1.067,-42.786,74.463,-9.766
0.546,1.768,0.963,-43.396,90.149,-24.292
0.515,1.595,0.853,-45.898,100.098,-36.011
0.466,1.456,0.756,-54.565,103.210,-41.321
0.436,1.340,0.678,-67.200,101.318,-42.786
0.384,1.264,0.604,-80.872,96.680,-44.128
0.346,1.207,0.530,-92.224,89.355,-47.119
0.312,1.147,0.472,-99.426,80.505,-51.697
0.268,1.086,0.424,-102.112,70.618,-57.617
0.206,1.021,0.399,-99.487,61.157,-65.186
0.229,0.901,0.465,-89.355,60.974,-75.378
0.230,0.819,0.516,-72.693,68.787,-84.778
0.170,0.805,0.482,-55.603,78.003,-91.797
0.126,0.785,0.449,-46.875,84.534,-96.436
0.090,0.717,0.414,-48.157,88.013,-97.534
0.049,0.654,0.348,-55.908,87.280,-95.154
0.007,0.591,0.289,-65.674,84.839,-91.980
-0.016,0.525,0.211,-72.693,81.055,-89.661
-0.050,0.404,0.144,-74.280,75.012,-87.280
-0.054,0.339,0.090,-71.167,66.284,-85.022
-0.105,0.275,0.062,-64.270,57.556,-81.360
-0.081,0.238,0.072,-55.359,49.255,-79.407
-0.050,0.165,0.094,-43.823,44.189,-78.430
-0.042,0.107,0.086,-30.457,42.480,-75.195
-0.041,0.066,0.050,-15.564,40.955,-71.594
-0.052,0.007,0.023,-6.165,38.147,-65.186
-0.078,0.032,-0.035,-4.639,28.442,-55.420
-0.093,0.053,-0.058,-7.263,14.404,-43.274
-0.104,0.096,-0.068,-15.564,3.113,-26.123
-0.082,0.161,-0.054,-25.635,-5.066,-10.315
-0.051,0.227,-0.044,-30.518,-15.259,0.000
-0.050,0.299,-0.034,-32.104,-25.818,9.949
-0.074,0.386,-0.032,-31.311,-35.583,17.639
-0.073,0.482,-0.013,-28.870,-43.884,21.484
-0.074,0.557,0.001,-26.306,-50.537,23.193
-0.107,0.577,-0.003,-23.132,-56.152,23.743
-0.121,0.597,-0.010,-17.944,-61.523,22.400
-0.147,0.629,-0.025,-11.475,-69.214,19.470
-0.152,0.644,-0.018,-8.606,-77.209,17.761
-0.154,0.649,-0.013,-12.512,-87.585,18.616
-0.167,0.625,-0.004,-18.127,-98.755,20.020
-0.161,0.611,-0.008,-20.569,-108.765,19.409
-0.135,0.584,-0.001,-19.348,-116.821,17.334
-0.100,0.571,0.020,-13.977,-123.169,14.465
-0.042,0.578,0.033,-4.578,-127.014,10.559
0.007,0.632,0.025,6.836,-127.197,6.287
0.013,0.707,-0.022,16.113,-124.939,2.380
0.001,0.776,-0.099,18.311,-125.854,-0.793
0.012,0.821,-0.147,12.695,-131.348,-3.357
0.038,0.880,-0.166,3.296,-143.738,-5.310
0.093,0.931,-0.127,-8.179,-161.377,-7.690
0.173,0.966,-0.020,-17.517,-177.429,-10.864
0.209,0.973,0.083,-18.433,-189.270,-18.188
0.282,0.935,0.213,-8.179,-194.458,-30.518
0.323,0.831,0.333,6.531,-192.383,-42.908
0.397,0.678,0.452,23.560,-187.317,-56.641
0.519,0.565,0.600,41.504,-180.542,-68.848
0.630,0.527,0.775,52.124,-173.340,-76.355
0.736,0.507,0.956,50.415,-170.776,-79.529
0.833,0.465,1.136,37.598,-170.532,-78.003
0.861,0.306,1.296,20.874,-167.297,-72.266
1.078,0.432,1.388,11.719,-161.072,-72.021
1.266,0.226,1.705,11.658,-138.245,-63.599
1.271,0.275,1.694,9.460,-141.968,-68.054
1.322,0.252,1.735,16.174,-133.545,-71.899
1.425,0.295,1.804,20.569,-101.135,-68.542
1.431,0.304,1.766,17.822,-78.369,-64.026
1.413,0.292,1.658,10.986,-57.129,-58.960
1.393,0.270,1.511,4.822,-38.147,-53.833
1.382,0.248,1.378,2.686,-19.714,-48.767
1.339,0.250,1.251,1.892,-6.592,-42.419
1.266,0.296,1.135,2.014,1.160,-37.170
1.194,0.334,1.031,2.441,8.423,-33.325
1.132,0.365,0.949,2.502,14.648,-29.968
1.064,0.389,0.873,2.014,18.311,-26.917
1.026,0.396,0.810,2.136,21.484,-24.780
0.998,0.382,0.746,1.953,25.085,-22.339
0.958,0.357,0.688,1.587,29.541,-19.287
0.918,0.350,0.648,2.136,32.959,-15.747
0.875,0.390,0.622,2.563,34.058,-12.024
0.820,0.436,0.596,2.502,33.142,-9.338
0.790,0.455,0.576,1.709,32.166,-7.629
0.758,0.468,0.554,-0.122,31.799,-5.554
0.738,0.473,0.542,-1.648,30.151,-3.601
0.695,0.485,0.516,-2.075,28.809,-2.197
0.671,0.494,0.497,-1.892,27.344,-1.526
0.657,0.487,0.488,-1.282,27.100,-1.770
0.650,0.470,0.482,-0.671,26.978,-0.977
0.611,0.475,0.459,-0.549,26.245,0.610
0.607,0.467,0.457,0.122,23.865,1.160
0.612,0.468,0.469,0.244,21.423,2.197
0.610,0.477,0.476,-0.305,18.616,3.540
0.600,0.477,0.471,-0.549,16.418,4.028
0.590,0.477,0.464,-0.671,14.038,3.967
0.586,0.479,0.465,-0.549,11.780,3.723
0.586,0.479,0.474,0.366,9.888,3.357
0.577,0.476,0.479,0.793,8.606,3.357
0.595,0.477,0.492,1.221,7.874,3.296
0.594,0.486,0.490,1.770,7.080,3.723
0.594,0.493,0.498,2.380,5.920,4.150
0.603,0.508,0.515,4.272,5.066,3.906

0.410,1.490,1.135,108.459,-85.632,193.481
0.449,1.689,1.239,90.393,-77.271,193.665
0.499,1.865,1.298,78.064,-66.040,186.646
0.515,1.968,1.292,71.716,-50.415,175.537
0.555,2.093,1.282,68.237,-34.729,161.621
0.593,2.242,1.272,60.913,-23.499,147.522
0.642,2.329,1.264,50.293,-14.221,132.690
0.657,2.332,1.220,39.978,-3.845,117.065
0.690,2.342,1.173,30.457,6.165,101.074
0.659,2.250,1.096,23.193,16.296,85.449
0.637,2.187,1.030,17.883,24.719,70.374
0.631,2.185,1.012,11.353,29.663,56.763
0.639,2.210,1.002,0.610,33.264,44.128
0.628,2.149,1.014,-13.672,37.231,33.142
0.632,2.139,0.960,-27.954,38.818,21.240
0.613,2.031,0.943,-35.950,46.387,9.949
0.668,1.942,0.954,-42.725,54.016,-2.075
0.655,1.809,0.907,-46.082,57.251,-14.099
0.619,1.696,0.821,-49.377,65.613,-24.109
0.616,1.563,0.768,-54.565,77.209,-32.043
0.591,1.471,0.714,-63.538,81.604,-36.377
0.547,1.365,0.656,-74.524,80.872,-37.659
0.505,1.249,0.584,-84.045,79.163,-39.368
0.466,1.146,0.497,-90.149,75.684,-41.138
0.419,1.050,0.411,-93.018,69.275,-43.396
0.369,0.989,0.367,-94.604,60.791,-45.044
0.287,0.973,0.319,-96.130,50.171,-47.729
0.224,0.905,0.318,-97.107,45.837,-51.636
0.194,0.780,0.351,-95.154,45.837,-56.885
0.177,0.668,0.390,-86.914,49.927,-61.218
0.130,0.627,0.389,-75.989,57.617,-62.988
0.061,0.597,0.352,-66.467,62.195,-64.758
0.016,0.552,0.320,-63.110,67.566,-65.369
-0.045,0.536,0.271,-66.833,68.115,-63.599
-0.097,0.505,0.208,-73.547,63.721,-61.096
-0.111,0.451,0.161,-78.979,60.120,-58.044
-0.162,0.423,0.092,-81.177,54.077,-55.298
-0.193,0.388,0.038,-76.233,43.335,-56.091
-0.211,0.336,0.015,-68.115,33.630,-56.091
-0.233,0.303,0.021,-58.655,23.560,-54.504
-0.231,0.287,0.033,-47.607,14.771,-53.467
-0.245,0.303,0.049,-37.781,4.700,-51.147
-0.265,0.321,0.046,-33.264,-6.897,-45.105
-0.295,0.308,0.059,-32.288,-9.460,-37.231
-0.264,0.304,0.049,-28.687,-8.301,-34.668
-0.240,0.293,0.022,-23.743,-8.911,-31.494
-0.257,0.305,-0.018,-20.813,-13.000,-24.048
-0.255,0.356,-0.037,-19.043,-20.386,-16.724
-0.222,0.424,-0.028,-18.311,-29.541,-10.437
-0.208,0.497,-0.026,-19.714,-39.978,-4.578
-0.198,0.549,-0.041,-21.851,-47.241,0.122
-0.200,0.567,-0.069,-23.132,-52.307,3.540
-0.201,0.572,-0.112,-23.132,-58.777,5.859
-0.199,0.574,-0.142,-20.691,-64.636,6.592
-0.205,0.587,-0.166,-16.602,-71.167,5.859
-0.204,0.600,-0.166,-13.123,-79.285,4.272
-0.184,0.573,-0.155,-12.390,-88.135,2.502
-0.145,0.530,-0.135,-12.085,-96.252,1.770
-0.112,0.505,-0.111,-9.033,-103.027,1.465
-0.044,0.515,-0.071,-3.418,-108.215,0.671
0.036,0.583,-0.040,2.930,-110.229,-0.122
0.072,0.664,-0.069,5.432,-109.375,-1.221
0.109,0.710,-0.140,3.906,-108.704,-2.136
0.137,0.715,-0.186,1.770,-110.840,-3.662
0.162,0.726,-0.205,0.916,-116.699,-5.676
0.185,0.741,-0.193,0.916,-126.892,-8.179
0.216,0.741,-0.120,2.563,-138.916,-12.329
0.259,0.768,0.027,7.385,-150.452,-17.456
0.344,0.805,0.217,17.090,-158.691,-25.940
0.496,0.822,0.419,28.503,-160.034,-36.987
0.625,0.801,0.556,37.476,-154.907,-48.035
0.730,0.756,0.643,42.664,-148.254,-57.495
0.869,0.700,0.724,43.030,-139.404,-64.575
1.004,0.615,0.815,37.109,-130.920,-67.444
1.058,0.593,0.896,24.902,-128.540,-63.660
1.106,0.592,1.008,13.062,-124.817,-57.495
1.169,0.628,1.102,4.639,-117.126,-53.101
1.310,0.673,1.154,0.549,-106.201,-52.429
1.318,0.591,1.159,0.549,-94.604,-55.908
1.451,0.550,1.169,7.751,-80.811,-59.387
1.337,0.366,1.148,7.385,-67.749,-54.138
1.338,0.446,1.047,5.981,-71.350,-59.998
1.365,0.399,1.114,10.437,-50.293,-55.908
1.306,0.477,1.053,6.348,-36.682,-46.936
1.303,0.493,1.013,1.892,-28.870,-42.725
1.323,0.511,0.954,-0.183,-16.113,-40.771
1.290,0.496,0.864,0.671,-3.906,-37.903
1.235,0.497,0.776,4.578,5.432,-36.316
1.170,0.500,0.707,9.460,10.620,-35.034
1.101,0.515,0.660,12.207,14.709,-32.837
1.046,0.526,0.633,11.353,15.808,-30.212
1.004,0.540,0.611,8.667,15.869,-26.855
0.968,0.557,0.580,5.249,16.724,-23.010
0.940,0.570,0.536,1.831,18.860,-20.386
0.913,0.545,0.493,0.244,21.423,-18.677
0.872,0.521,0.433,-1.404,22.949,-16.235
0.839,0.502,0.388,-0.793,23.437,-14.038
0.804,0.492,0.361,0.854,23.010,-11.475
0.760,0.514,0.334,2.869,20.386,-9.644
0.746,0.536,0.341,3.967,17.273,-8.789
0.731,0.547,0.353,3.845,13.611,-7.141
0.722,0.564,0.366,3.723,12.207,-5.676
0.721,0.575,0.379,4.517,12.146,-5.371
0.709,0.568,0.378,4.761,12.390,-4.883
0.693,0.559,0.368,3.235,13.184,-3.662
0.672,0.547,0.347,1.465,12.939,-2.441
0.657,0.536,0.334,0.122,11.047,-1.221
0.653,0.558,0.357,-0.610,8.301,0.488
0.650,0.593,0.381,-0.610,6.531,0.916
0.650,0.591,0.375,-1.099,5.554,0.549
0.643,0.563,0.358,-1.648,4.578,0.244
0.638,0.550,0.358,0.122,2.869,-0.183
0.644,0.558,0.375,2.991,1.648,-1.038
0.639,0.567,0.387,4.944,1.526,-1.526
0.627,0.559,0.384,5.493,2.502,-1.770
0.623,0.537,0.374,6.470,2.991,-2.014
0.628,0.536,0.365,7.996,2.563,-2.380
0.630,0.548,0.372,9.216,1.404,-2.136
0.646,0.560,0.389,7.629,0.061,-1.038

0.273,1.636,1.261,96.985,-69.885,197.815
0.305,1.764,1.312,82.764,-58.411,189.697
0.326,1.759,1.263,76.416,-43.396,175.598
0.316,1.644,1.154,79.102,-26.428,158.203
0.283,1.578,1.042,85.754,-13.977,143.372
0.286,1.634,1.007,86.487,-10.132,133.423
0.320,1.673,1.020,76.477,-9.705,127.747
0.337,1.685,1.012,61.157,-9.033,124.268
0.337,1.686,0.988,50.110,-6.226,118.835
0.355,1.705,0.948,44.434,-1.160,110.168
0.357,1.736,0.912,40.771,0.305,100.403
0.336,1.804,0.900,35.156,1.343,92.285
0.396,1.868,0.969,27.588,7.996,84.106
0.338,1.899,0.944,16.296,7.385,75.928
0.418,1.958,0.983,6.653,12.573,65.857
0.402,1.958,0.949,-1.038,20.020,56.763
0.441,1.941,0.966,-8.545,29.114,46.143
0.390,1.925,0.889,-15.076,27.771,31.799
0.369,1.851,0.849,-21.545,34.546,19.104
0.383,1.765,0.828,-27.161,41.443,5.615
0.378,1.687,0.795,-32.776,42.847,-4.822
0.379,1.616,0.761,-38.574,44.128,-13.123
0.364,1.546,0.716,-44.128,45.044,-21.790
0.355,1.458,0.682,-49.805,45.532,-29.907
0.360,1.357,0.693,-56.213,44.861,-35.706
0.338,1.266,0.690,-61.523,45.837,-39.551
0.302,1.200,0.668,-65.369,47.180,-44.067
0.281,1.156,0.642,-68.665,48.767,-49.377
0.252,1.121,0.603,-72.815,48.462,-53.345
0.228,1.084,0.568,-76.050,47.058,-57.068
0.209,1.049,0.541,-77.698,44.067,-61.218
0.172,1.048,0.519,-78.735,40.527,-65.796
0.186,0.987,0.539,-78.613,37.048,-72.388
0.169,0.930,0.568,-77.332,36.438,-77.271
0.135,0.905,0.565,-71.289,40.100,-81.665
0.091,0.871,0.533,-62.988,47.241,-87.036
0.068,0.833,0.493,-57.922,52.734,-91.736
0.049,0.753,0.458,-57.251,57.129,-93.384
-0.014,0.725,0.409,-62.439,55.969,-93.506
-0.027,0.667,0.368,-68.115,51.636,-92.102
-0.037,0.569,0.321,-72.571,46.448,-88.562
-0.043,0.500,0.257,-73.486,41.138,-85.144
-0.066,0.424,0.207,-68.726,34.973,-81.604
-0.075,0.366,0.193,-61.523,29.053,-77.637
-0.078,0.337,0.196,-51.331,25.513,-73.792
-0.107,0.311,0.212,-42.725,22.827,-68.665
-0.146,0.287,0.196,-39.185,18.616,-62.622
-0.176,0.247,0.167,-38.452,14.404,-55.542
-0.204,0.237,0.131,-38.147,9.705,-47.058
-0.215,0.266,0.098,-38.330,1.526,-39.185
-0.234,0.291,0.065,-38.452,-7.019,-31.982
-0.241,0.313,0.042,-38.940,-17.090,-24.963
-0.245,0.361,0.014,-39.368,-29.358,-19.043
-0.256,0.397,-0.022,-38.940,-40.100,-13.611
-0.250,0.404,-0.067,-37.170,-47.607,-10.010
-0.255,0.419,-0.118,-30.334,-52.429,-9.155
-0.284,0.442,-0.177,-18.311,-57.190,-11.169
-0.288,0.455,-0.229,-6.531,-61.768,-14.221
-0.322,0.452,-0.285,-1.648,-68.237,-14.587
-0.348,0.423,-0.315,-2.869,-79.468,-11.292
-0.352,0.413,-0.312,-6.165,-93.262,-6.897
-0.338,0.390,-0.296,-7.202,-107.178,-3.967
-0.307,0.383,-0.237,-3.357,-118.652,-3.418
-0.253,0.390,-0.141,4.822,-127.563,-5.371
-0.170,0.412,-0.059,10.803,-133.850,-7.263
-0.101,0.409,-0.027,10.925,-138.977,-6.226
-0.030,0.418,0.009,6.897,-145.264,-3.235
0.063,0.474,0.090,4.211,-151.489,-1.221
0.140,0.513,0.180,5.371,-157.654,-0.977
0.243,0.591,0.325,8.911,-164.062,-2.502
0.351,0.659,0.493,15.930,-170.532,-6.836
0.511,0.707,0.697,24.109,-173.096,-13.916
0.669,0.722,0.895,31.677,-167.847,-22.095
0.819,0.730,1.073,38.757,-153.442,-29.053
0.929,0.767,1.178,42.786,-141.541,-36.011
1.012,0.846,1.260,39.551,-131.836,-40.100
1.140,0.893,1.327,30.151,-121.155,-41.992
1.200,0.822,1.418,19.775,-111.267,-43.823
1.315,0.982,1.234,12.878,-102.051,-48.950
1.349,0.748,1.374,15.381,-77.454,-47.852
1.322,0.739,1.215,10.132,-85.815,-56.824
1.305,0.713,1.163,10.254,-89.722,-61.523
1.274,0.738,1.179,9.338,-71.289,-56.519
1.251,0.714,1.145,4.395,-59.631,-55.298
1.205,0.639,1.072,1.465,-49.866,-56.641
1.156,0.542,0.999,4.272,-37.781,-58.105
1.125,0.457,0.941,10.864,-24.170,-59.021
1.093,0.398,0.871,15.625,-15.320,-57.861
1.058,0.386,0.821,15.381,-10.498,-52.551
1.013,0.403,0.778,10.010,-7.874,-43.884
0.970,0.439,0.740,3.784,-6.531,-35.034
0.919,0.476,0.711,-1.282,-6.470,-28.015
0.879,0.502,0.681,-3.662,-6.042,-23.376
0.853,0.503,0.648,-2.869,-3.540,-21.118
0.821,0.490,0.614,-0.610,-0.549,-19.775
0.783,0.473,0.586,1.526,1.343,-18.066
0.761,0.475,0.572,4.028,3.052,-16.296
0.730,0.493,0.570,6.226,4.333,-14.282
0.708,0.520,0.568,5.859,4.333,-11.780
0.701,0.525,0.561,4.639,3.845,-9.521
0.690,0.533,0.562,0.854,4.089,-5.798
0.665,0.544,0.546,-2.563,3.662,-3.113
0.640,0.551,0.527,-4.333,3.052,-1.709
0.602,0.544,0.507,-4.761,2.930,-0.732
0.578,0.530,0.504,-2.930,2.625,-0.549
0.571,0.526,0.517,0.000,2.869,-1.160
0.572,0.535,0.529,2.563,3.357,-1.526
0.568,0.558,0.530,2.686,3.723,-0.671
0.562,0.572,0.526,0.732,3.357,0.549
0.542,0.583,0.511,-1.587,3.052,2.014
0.530,0.594,0.503,-1.953,2.319,2.319
0.523,0.607,0.507,-0.549,1.831,1.404
0.514,0.608,0.506,2.197,2.014,-0.366
0.514,0.597,0.495,4.944,2.197,-2.197
0.517,0.599,0.493,5.737,1.648,-2.930
0.526,0.611,0.508,4.700,0.305,-3.052
0.538,0.622,0.533,3.174,-0.244,-2.686
0.542,0.631,0.548,1.343,0.183,-2.258
0.540,0.626,0.550,0.793,1.099,-2.502

0.150,1.740,1.228,103.516,-86.792,223.450
0.226,1.917,1.311,92.346,-76.294,215.515
0.311,2.084,1.356,83.984,-61.096,204.407
0.376,2.269,1.363,75.134,-47.607,192.749
0.443,2.535,1.390,61.890,-36.743,181.580
0.481,2.751,1.419,46.570,-25.452,166.321
0.531,2.903,1.437,31.128,-12.695,146.362
0.580,2.935,1.390,18.372,1.465,120.667
0.626,2.854,1.304,10.742,17.761,93.567
0.605,2.716,1.167,6.714,32.898,67.627
0.595,2.610,1.070,4.089,42.542,44.250
0.619,2.474,1.029,0.061,48.706,24.414
0.588,2.361,1.001,-8.179,52.979,6.287
0.566,2.221,0.968,-17.456,57.373,-10.132
0.564,2.044,0.923,-25.146,62.378,-26.062
0.563,1.821,0.873,-31.677,67.261,-39.917
0.551,1.609,0.822,-36.865,69.519,-50.598
0.580,1.409,0.821,-41.748,73.303,-57.312
0.546,1.225,0.782,-49.377,77.148,-59.387
0.520,1.109,0.739,-57.800,78.308,-58.533
0.476,1.057,0.703,-66.589,79.163,-54.382
0.436,1.024,0.636,-74.707,79.956,-51.880
0.422,1.000,0.593,-80.872,81.360,-51.575
0.362,0.968,0.501,-84.961,77.881,-51.392
0.302,0.918,0.424,-86.914,76.599,-52.185
0.249,0.886,0.345,-88.013,73.669,-54.993
0.184,0.859,0.268,-88.806,67.627,-58.472
0.155,0.806,0.222,-88.196,63.721,-61.829
0.123,0.749,0.209,-86.609,60.791,-63.293
0.120,0.670,0.232,-83.374,57.617,-63.843
0.100,0.622,0.250,-79.895,57.495,-63.293
0.065,0.583,0.248,-75.928,58.472,-61.707
0.026,0.550,0.237,-71.655,61.218,-60.913
-0.051,0.536,0.183,-68.298,64.697,-60.059
-0.082,0.494,0.145,-67.078,66.040,-59.631
-0.097,0.397,0.080,-67.200,62.683,-59.570
-0.119,0.324,0.007,-65.369,52.246,-57.190
-0.145,0.268,-0.061,-58.655,43.762,-53.650
-0.154,0.204,-0.101,-48.828,38.452,-51.331
-0.169,0.197,-0.130,-37.292,28.198,-49.866
-0.175,0.226,-0.112,-26.184,17.700,-47.485
-0.178,0.247,-0.104,-19.104,8.606,-42.542
-0.193,0.226,-0.136,-16.174,-1.099,-36.499
-0.202,0.265,-0.094,-16.296,-9.705,-30.151
-0.201,0.275,-0.099,-16.235,-19.409,-20.447
-0.202,0.332,-0.101,-16.785,-28.137,-11.230
-0.214,0.402,-0.096,-17.212,-35.950,-3.540
-0.217,0.499,-0.091,-19.531,-44.678,3.296
-0.211,0.575,-0.095,-22.522,-52.490,7.996
-0.207,0.612,-0.111,-24.170,-58.350,10.254
-0.231,0.649,-0.139,-22.827,-61.340,11.353
-0.272,0.697,-0.176,-18.555,-64.575,10.193
-0.273,0.699,-0.168,-16.479,-68.665,8.362
-0.287,0.702,-0.176,-20.142,-78.247,8.789
-0.295,0.706,-0.175,-25.146,-89.966,10.193
-0.304,0.695,-0.180,-27.710,-100.586,10.437
-0.296,0.680,-0.208,-26.306,-110.901,8.545
-0.240,0.655,-0.207,-18.982,-117.798,4.272
-0.217,0.652,-0.217,-7.568,-122.192,-0.977
-0.199,0.653,-0.229,3.540,-125.122,-5.249
-0.184,0.645,-0.249,12.268,-129.517,-9.216
-0.148,0.627,-0.251,15.991,-136.841,-12.695
-0.108,0.601,-0.226,14.282,-148.071,-13.733
-0.046,0.602,-0.171,8.667,-163.147,-12.939
0.002,0.588,-0.084,1.953,-176.819,-10.986
0.056,0.579,0.043,0.305,-187.317,-9.521
0.167,0.618,0.205,8.118,-193.970,-11.475
0.291,0.660,0.372,23.132,-196.716,-18.433
0.397,0.678,0.519,36.499,-196.655,-27.222
0.538,0.671,0.698,43.640,-193.481,-35.583
0.627,0.656,0.834,44.067,-190.125,-41.016
0.740,0.610,1.005,41.321,-185.059,-44.556
0.819,0.594,1.177,34.424,-182.007,-44.067
0.918,0.634,1.362,24.902,-176.575,-39.612
1.024,0.686,1.517,19.775,-165.344,-38.391
1.110,0.702,1.566,19.409,-149.780,-41.748
1.262,0.699,1.564,21.301,-131.226,-47.607
1.194,0.600,1.481,22.888,-114.563,-51.758
1.263,0.483,1.524,24.780,-90.515,-48.462
1.202,0.410,1.449,19.531,-83.435,-44.739
1.142,0.493,1.318,18.005,-99.792,-48.645
1.127,0.481,1.340,21.729,-77.454,-42.297
1.135,0.511,1.232,21.240,-61.279,-38.757
1.149,0.467,1.140,19.348,-48.340,-37.537
1.131,0.460,1.053,18.860,-35.522,-34.485
1.079,0.482,1.004,19.775,-23.132,-30.212
1.048,0.534,0.989,18.860,-14.160,-26.794
0.989,0.574,0.951,15.503,-8.484,-23.499
0.936,0.596,0.906,12.634,-3.235,-21.423
0.906,0.616,0.851,12.634,1.038,-21.179
0.882,0.641,0.805,13.977,3.662,-21.301
0.874,0.641,0.752,13.977,5.920,-20.935
0.850,0.632,0.713,11.963,8.911,-19.348
0.812,0.616,0.682,10.071,12.268,-17.151
0.766,0.629,0.653,10.254,14.709,-15.503
0.731,0.652,0.648,10.132,16.174,-14.771
0.660,0.683,0.621,9.399,16.541,-15.198
0.656,0.673,0.608,10.315,15.808,-18.372
0.662,0.633,0.579,11.963,16.418,-21.362
0.684,0.619,0.582,14.099,17.334,-22.949
0.684,0.602,0.584,15.747,18.555,-22.888
0.675,0.575,0.581,14.099,19.958,-21.362
0.653,0.554,0.574,10.010,20.691,-18.127
0.631,0.565,0.568,4.578,21.179,-13.855
0.602,0.553,0.547,0.000,21.118,-10.803
0.583,0.540,0.519,-2.319,20.142,-8.911
0.574,0.524,0.504,-1.892,18.494,-8.057
0.576,0.523,0.508,0.000,16.663,-7.446
0.576,0.523,0.517,1.892,14.832,-6.653
0.569,0.511,0.521,2.686,13.489,-5.676
0.561,0.504,0.538,3.113,12.756,-4.211
0.555,0.505,0.549,5.005,12.085,-3.418
0.561,0.523,0.560,6.897,12.512,-3.296
0.562,0.554,0.562,7.385,13.123,-3.113
0.552,0.558,0.552,4.700,13.550,-2.197
0.545,0.546,0.530,0.671,13.733,-0.916
0.544,0.544,0.506,-1.892,13.855,0.183
0.550,0.543,0.490,-1.221,12.756,0.244
0.561,0.552,0.493,1.587,11.597,-0.549

0.283,1.594,0.845,89.966,-54.016,187.378
0.317,1.706,0.842,83.740,-50.293,179.443
0.329,1.744,0.811,78.491,-44.922,170.105
0.353,1.769,0.791,75.012,-39.185,159.851
0.364,1.880,0.813,71.838,-36.743,150.085
0.384,2.102,0.899,60.974,-39.368,143.005
0.418,2.270,0.995,44.189,-42.236,134.827
0.484,2.438,1.101,29.297,-39.673,120.667
0.560,2.483,1.161,22.583,-30.029,101.196
0.615,2.453,1.151,21.301,-13.794,79.468
0.634,2.373,1.102,21.118,3.784,57.495
0.631,2.312,1.050,16.235,19.043,39.795
0.613,2.255,1.007,3.235,28.992,27.283
0.603,2.191,0.983,-14.709,35.156,17.822
0.597,2.090,0.953,-31.616,40.161,7.935
0.581,1.985,0.900,-42.847,46.692,-3.235
0.566,1.853,0.817,-49.805,53.589,-16.052
0.542,1.702,0.732,-55.725,58.838,-28.015
0.516,1.579,0.660,-61.768,62.317,-37.109
0.475,1.461,0.597,-68.359,63.171,-43.762
0.425,1.368,0.550,-75.562,61.218,-48.950
0.378,1.278,0.512,-80.017,57.556,-54.749
0.342,1.205,0.492,-80.688,52.429,-61.340
0.306,1.183,0.486,-79.346,47.668,-68.054
0.271,1.110,0.502,-77.698,44.861,-74.524
0.280,1.038,0.562,-74.768,46.509,-79.895
0.248,0.999,0.569,-68.787,51.697,-85.022
0.194,0.939,0.546,-64.636,59.937,-89.294
0.158,0.883,0.515,-64.514,67.505,-92.163
0.114,0.833,0.470,-68.542,73.486,-92.041
0.046,0.796,0.410,-76.477,73.303,-90.210
-0.021,0.763,0.357,-84.106,67.322,-89.478
-0.053,0.721,0.340,-87.646,61.829,-91.248
-0.062,0.648,0.329,-84.839,56.702,-95.764
-0.069,0.577,0.306,-76.782,52.307,-100.525
-0.064,0.484,0.307,-64.209,50.293,-105.164
-0.049,0.372,0.317,-51.941,52.185,-106.873
-0.020,0.271,0.293,-41.809,51.331,-105.774
-0.054,0.198,0.228,-38.025,47.485,-97.778
-0.079,0.153,0.186,-37.537,46.753,-86.182
-0.087,0.155,0.156,-38.086,44.739,-75.867
-0.095,0.150,0.115,-40.222,38.757,-66.101
-0.134,0.179,0.080,-42.236,35.095,-56.152
-0.141,0.179,0.033,-40.039,26.306,-44.312
-0.149,0.188,0.003,-35.767,18.616,-35.889
-0.155,0.223,-0.028,-31.555,8.057,-28.381
-0.146,0.259,-0.051,-28.748,-2.869,-21.057
-0.138,0.291,-0.057,-26.794,-12.329,-13.611
-0.116,0.361,-0.054,-23.804,-20.020,-7.324
-0.131,0.440,-0.084,-19.592,-27.222,-3.662
-0.132,0.490,-0.106,-16.113,-33.203,-1.221
-0.109,0.530,-0.113,-15.320,-39.551,1.221
-0.091,0.581,-0.123,-17.578,-47.241,4.944
-0.075,0.621,-0.131,-23.621,-54.993,10.315
-0.046,0.644,-0.133,-29.968,-62.256,15.381
-0.047,0.684,-0.122,-33.569,-68.115,19.836
-0.061,0.731,-0.102,-33.386,-72.937,22.034
-0.086,0.775,-0.099,-29.480,-77.271,19.714
-0.091,0.802,-0.096,-24.109,-80.322,14.526
-0.036,0.793,-0.089,-19.226,-84.412,7.507
0.019,0.725,-0.083,-16.663,-89.905,1.343
0.076,0.648,-0.078,-15.808,-94.238,-1.953
0.126,0.578,-0.091,-13.367,-97.473,-3.784
0.204,0.544,-0.096,-9.888,-101.440,-5.798
0.278,0.574,-0.094,-9.094,-107.056,-5.798
0.345,0.643,-0.081,-11.597,-114.319,-4.944
0.426,0.697,-0.042,-15.686,-122.253,-4.883
0.518,0.687,0.035,-16.418,-128.723,-7.751
0.594,0.649,0.117,-10.132,-132.019,-14.038
0.658,0.605,0.176,2.930,-132.141,-23.071
0.716,0.547,0.256,17.639,-132.263,-32.288
0.789,0.516,0.380,28.198,-134.583,-37.903
0.958,0.579,0.617,33.203,-135.132,-40.771
1.073,0.647,0.810,34.058,-133.606,-43.091
1.226,0.673,0.974,30.457,-126.343,-46.204
1.283,0.608,1.023,23.132,-112.061,-47.424
1.319,0.482,0.983,16.479,-98.145,-47.668
1.333,0.364,0.911,12.939,-84.961,-46.509
1.319,0.334,0.859,11.169,-75.378,-42.542
1.336,0.381,0.862,8.057,-69.214,-35.889
1.243,0.407,0.886,2.686,-65.247,-27.710
1.351,0.626,0.886,-0.488,-59.814,-25.146
1.327,0.591,0.937,-1.831,-52.490,-17.944
1.185,0.587,0.687,-10.010,-51.514,-22.522
1.304,0.493,0.653,-0.427,-37.109,-33.325
1.230,0.464,0.585,8.606,-20.996,-29.419
1.130,0.482,0.503,10.925,-19.470,-26.123
1.138,0.466,0.525,14.343,-15.747,-26.917
1.086,0.489,0.529,15.747,-11.841,-23.560
1.058,0.567,0.547,16.724,-10.193,-21.606
1.052,0.604,0.570,17.639,-7.751,-21.729
1.043,0.629,0.565,13.794,-4.150,-20.508
1.001,0.595,0.525,9.338,-0.916,-18.616
0.964,0.568,0.478,6.165,2.869,-16.357
0.931,0.556,0.428,6.409,6.348,-14.771
0.892,0.562,0.401,7.507,9.094,-13.245
0.852,0.577,0.377,7.996,8.667,-12.451
0.821,0.598,0.358,7.324,7.019,-12.512
0.795,0.604,0.347,5.859,5.066,-12.817
0.775,0.589,0.325,5.249,2.747,-13.550
0.770,0.583,0.328,5.859,1.526,-14.038
0.767,0.562,0.344,7.446,0.427,-14.404
0.773,0.546,0.365,9.277,0.977,-14.709
0.769,0.525,0.379,11.536,3.052,-14.038
0.773,0.526,0.388,12.878,5.554,-12.146
0.760,0.536,0.386,12.024,7.141,-8.972
0.746,0.545,0.383,9.338,7.324,-5.371
0.733,0.552,0.378,5.920,6.836,-2.808
0.720,0.552,0.372,2.991,5.554,-0.427
0.706,0.563,0.373,1.648,3.723,1.465
0.693,0.579,0.372,1.526,1.465,2.075
0.689,0.590,0.374,1.648,-0.854,1.953
0.698,0.601,0.390,2.197,-2.869,1.038
0.707,0.602,0.418,3.296,-3.357,0.488
0.706,0.599,0.430,4.639,-2.136,-0.305
0.707,0.588,0.437,5.432,-0.427,-0.549
0.705,0.577,0.436,5.432,1.526,0.061
0.690,0.562,0.423,4.761,2.808,0.671
0.673,0.557,0.402,4.517,3.357,0.916

0.228,1.347,0.977,96.741,-58.411,173.767
0.219,1.397,0.965,98.633,-50.049,166.077
0.205,1.477,0.983,97.168,-46.448,159.363
0.207,1.559,1.017,89.294,-45.593,154.907
0.229,1.677,1.071,77.820,-45.959,150.940
0.274,1.803,1.140,63.599,-47.180,145.996
0.335,1.912,1.196,48.828,-44.739,138.306
0.415,2.004,1.229,38.086,-36.743,128.845
0.406,2.011,1.242,31.677,-25.940,115.479
0.436,1.985,1.254,29.907,-17.029,100.525
0.396,1.964,1.222,26.001,-7.690,86.914
0.439,2.003,1.246,21.118,-4.578,72.388
0.413,1.997,1.268,10.681,3.418,64.880
0.424,2.007,1.251,-4.089,11.963,55.542
0.435,1.968,1.241,-17.029,24.048,44.922
0.408,1.911,1.178,-28.320,35.522,33.691
0.377,1.862,1.141,-36.133,44.983,21.545
0.367,1.834,1.132,-43.091,53.528,9.216
0.349,1.784,1.108,-50.659,61.401,-2.014
0.311,1.735,1.060,-58.960,67.871,-10.986
0.271,1.690,0.996,-66.406,71.838,-20.691
0.242,1.626,0.926,-70.618,74.585,-31.921
0.214,1.554,0.853,-72.388,77.148,-43.152
0.200,1.470,0.788,-75.134,78.308,-53.894
0.169,1.412,0.738,-81.055,77.209,-61.401
0.127,1.409,0.715,-89.661,72.571,-66.528
0.077,1.394,0.709,-97.717,66.833,-72.937
0.042,1.365,0.706,-101.563,61.768,-82.214
0.016,1.256,0.752,-100.159,58.960,-93.689
0.026,1.138,0.834,-91.980,63.049,-105.408
0.004,1.045,0.830,-79.102,73.181,-116.516
-0.041,0.977,0.791,-70.801,85.144,-124.817
-0.081,0.878,0.735,-71.106,95.459,-128.540
-0.138,0.757,0.634,-75.989,99.182,-129.211
-0.173,0.646,0.547,-79.285,101.807,-128.906
-0.206,0.567,0.451,-78.918,101.135,-128.845
-0.264,0.481,0.333,-76.111,98.877,-127.991
-0.297,0.398,0.243,-71.533,95.398,-126.770
-0.313,0.352,0.170,-65.979,87.402,-126.526
-0.317,0.296,0.124,-59.082,76.172,-125.183
-0.319,0.256,0.099,-52.002,64.697,-122.498
-0.297,0.211,0.098,-44.617,56.824,-118.103
-0.256,0.140,0.125,-37.048,54.016,-112.976
-0.242,0.140,0.129,-28.503,52.795,-106.689
-0.271,0.175,0.093,-21.545,50.659,-97.961
-0.270,0.189,0.055,-20.752,45.898,-87.891
-0.275,0.174,0.008,-24.780,37.476,-75.989
-0.288,0.179,-0.020,-29.724,26.306,-62.927
-0.283,0.202,-0.045,-31.860,14.771,-52.185
-0.265,0.204,-0.065,-30.396,7.935,-44.006
-0.248,0.205,-0.091,-26.245,-0.427,-37.903
-0.214,0.237,-0.093,-20.996,-8.728,-31.799
-0.218,0.284,-0.103,-16.724,-17.029,-24.780
-0.216,0.289,-0.099,-14.465,-25.879,-18.921
-0.194,0.279,-0.093,-14.343,-34.912,-14.099
-0.191,0.289,-0.111,-15.320,-45.166,-9.583
-0.177,0.297,-0.119,-15.808,-56.641,-5.737
-0.146,0.318,-0.116,-16.479,-68.970,-2.930
-0.093,0.365,-0.096,-18.005,-81.177,0.854
-0.034,0.424,-0.067,-20.569,-91.858,5.920
0.038,0.481,-0.040,-23.315,-97.473,10.437
0.081,0.547,-0.041,-22.644,-99.304,12.390
0.096,0.663,-0.058,-19.348,-100.708,11.841
0.081,0.765,-0.075,-18.066,-104.004,8.789
0.076,0.836,-0.065,-19.897,-110.474,3.296
0.148,0.859,-0.059,-21.240,-120.178,-4.089
0.293,0.789,-0.031,-19.287,-127.441,-13.916
0.403,0.694,0.009,-11.353,-132.019,-23.743
0.498,0.638,0.081,-1.221,-136.963,-31.677
0.552,0.638,0.194,8.850,-139.954,-38.025
0.564,0.640,0.322,17.029,-144.409,-44.312
0.581,0.682,0.462,21.729,-151.855,-51.331
0.681,0.697,0.647,23.621,-155.151,-60.059
0.848,0.642,0.822,25.513,-151.978,-70.251
1.012,0.542,0.917,27.039,-146.484,-79.224
1.126,0.431,0.957,29.236,-133.728,-84.290
1.260,0.307,1.004,31.494,-118.835,-85.449
1.164,0.211,0.933,26.306,-107.300,-77.576
1.296,0.382,0.935,19.409,-98.816,-70.129
1.300,0.351,1.031,7.507,-91.675,-52.063
1.219,0.440,0.892,-11.414,-98.999,-48.401
1.418,0.474,1.013,-9.949,-90.820,-52.368
1.405,0.487,1.054,-2.014,-70.679,-47.180
1.379,0.519,1.013,3.784,-60.181,-47.913
1.368,0.425,1.003,8.423,-45.715,-50.110
1.343,0.392,0.947,7.446,-31.799,-47.546
1.303,0.336,0.894,8.179,-20.325,-42.236
1.242,0.333,0.830,7.446,-12.268,-34.302
1.188,0.372,0.779,4.883,-9.888,-26.489
1.170,0.452,0.770,0.854,-9.033,-20.142
1.137,0.498,0.767,-4.333,-8.057,-14.771
1.086,0.494,0.736,-8.057,-5.005,-12.024
1.037,0.469,0.692,-7.568,-0.793,-11.597
0.986,0.434,0.642,-3.906,3.418,-11.719
0.934,0.413,0.595,1.343,7.202,-11.780
0.894,0.411,0.556,6.653,8.850,-11.719
0.872,0.433,0.539,11.169,9.583,-11.414
0.851,0.442,0.514,12.634,10.132,-10.559
0.822,0.433,0.486,12.817,10.193,-8.972
0.801,0.435,0.467,12.268,9.094,-7.385
0.781,0.453,0.453,9.094,7.080,-4.700
0.760,0.468,0.449,4.028,5.310,-1.465
0.733,0.473,0.443,-1.038,3.479,2.258
0.721,0.459,0.454,-2.747,2.930,4.333
0.710,0.468,0.467,-1.404,2.136,4.761
0.701,0.486,0.479,2.441,2.441,3.967
0.699,0.492,0.477,5.737,3.845,2.563
0.694,0.499,0.462,7.385,4.578,2.075
0.684,0.514,0.456,7.019,3.967,2.991
0.675,0.546,0.480,5.981,2.991,3.845
0.680,0.562,0.500,3.601,2.441,3.296
0.675,0.548,0.500,-0.122,2.930,3.479
0.658,0.531,0.478,-2.380,3.601,3.723
0.642,0.521,0.448,-1.831,3.296,3.418
0.633,0.516,0.439,-0.305,2.075,2.441
0.635,0.527,0.473,1.648,1.160,1.648
0.648,0.542,0.506,2.808,1.343,0.244
0.656,0.540,0.514,1.831,2.686,-0.671
0.658,0.531,0.501,0.610,4.211,-0.732

0.150,1.780,1.186,90.576,-75.867,204.102
0.229,1.938,1.293,88.318,-64.514,190.735
0.292,2.084,1.343,84.778,-50.110,177.063
0.332,2.173,1.348,79.285,-35.522,161.560
0.349,2.231,1.338,69.458,-22.888,146.606
0.349,2.289,1.326,54.077,-13.428,134.094
0.388,2.382,1.353,36.499,-7.385,121.948
0.411,2.494,1.384,18.494,-2.625,109.985
0.411,2.581,1.372,2.075,4.395,95.581
0.437,2.616,1.341,-11.108,14.282,76.294
0.421,2.600,1.285,-22.339,25.879,54.749
0.393,2.552,1.257,-32.227,35.400,34.119
0.351,2.527,1.170,-42.480,43.884,11.963
0.335,2.376,1.151,-49.561,57.800,-8.972
0.327,2.229,1.057,-58.472,65.063,-30.273
0.276,2.014,0.936,-68.970,66.589,-47.791
0.211,1.833,0.809,-80.933,68.726,-61.829
0.172,1.651,0.725,-90.027,70.068,-74.036
0.123,1.484,0.663,-96.741,66.223,-85.144
0.070,1.332,0.622,-101.318,58.167,-95.154
0.017,1.184,0.583,-101.501,49.561,-105.591
-0.005,1.010,0.587,-96.863,41.443,-117.676
0.018,0.854,0.631,-89.355,38.818,-127.502
0.039,0.696,0.682,-80.627,39.734,-132.446
0.043,0.608,0.707,-73.242,48.706,-132.874
0.019,0.550,0.672,-67.200,63.843,-130.493
-0.032,0.530,0.565,-65.857,74.646,-127.380
-0.075,0.485,0.481,-70.068,81.604,-122.620
-0.086,0.444,0.387,-77.698,82.336,-117.981
-0.103,0.377,0.308,-83.923,80.139,-112.854
-0.129,0.302,0.202,-85.510,75.012,-107.666
-0.136,0.262,0.126,-82.092,67.688,-103.210
-0.149,0.213,0.063,-74.707,57.556,-98.572
-0.157,0.204,0.047,-67.200,46.143,-92.957
-0.163,0.163,0.042,-57.922,32.654,-88.806
-0.161,0.154,0.068,-48.889,18.188,-82.764
-0.159,0.136,0.099,-41.138,6.653,-75.684
-0.155,0.114,0.105,-32.471,-2.380,-69.153
-0.131,0.106,0.114,-23.193,-6.958,-63.110
-0.111,0.108,0.114,-15.076,-11.780,-56.335
-0.109,0.140,0.091,-12.573,-18.677,-44.983
-0.131,0.158,0.057,-15.808,-23.010,-31.250
-0.125,0.195,0.042,-21.179,-28.625,-18.494
-0.135,0.254,0.028,-26.367,-35.339,-6.836
-0.150,0.330,-0.005,-30.273,-44.373,1.404
-0.164,0.371,-0.042,-31.555,-53.528,6.958
-0.169,0.391,-0.083,-31.311,-64.148,10.559
-0.172,0.371,-0.091,-28.015,-75.867,12.573
-0.137,0.392,-0.100,-22.705,-85.205,13.245
-0.132,0.428,-0.096,-15.808,-91.858,14.160
-0.143,0.488,-0.099,-10.254,-98.999,15.259
-0.116,0.550,-0.087,-7.690,-107.971,15.259
-0.083,0.610,-0.071,-8.972,-118.530,14.832
-0.036,0.671,-0.040,-12.634,-127.563,15.625
0.001,0.717,-0.013,-16.357,-134.827,16.785
0.049,0.741,0.016,-17.151,-139.404,16.296
0.102,0.756,0.041,-10.864,-140.015,11.658
0.137,0.760,0.037,2.014,-140.442,3.540
0.175,0.790,0.058,13.855,-142.639,-4.517
0.216,0.827,0.124,18.616,-149.109,-11.902
0.279,0.854,0.283,13.000,-159.851,-16.479
0.363,0.871,0.494,2.625,-169.373,-18.860
0.501,0.802,0.698,-1.892,-168.823,-23.254
0.647,0.725,0.857,1.892,-156.677,-29.480
0.805,0.604,0.986,14.038,-140.198,-38.696
0.918,0.528,1.031,26.245,-121.216,-45.654
0.981,0.511,1.063,30.823,-107.849,-47.485
1.022,0.543,1.112,25.208,-101.257,-45.593
1.069,0.578,1.174,13.855,-97.412,-41.260
1.117,0.576,1.259,3.662,-93.384,-37.903
1.218,0.609,1.259,2.319,-87.646,-42.419
1.359,0.536,1.345,10.254,-75.256,-41.870
1.174,0.462,1.234,9.399,-68.665,-41.199
1.281,0.507,1.213,14.099,-60.791,-50.842
1.253,0.478,1.218,19.470,-37.231,-47.180
1.156,0.540,1.133,16.174,-27.466,-42.114
1.145,0.539,1.106,14.404,-18.616,-42.236
1.116,0.553,1.052,12.573,-8.850,-41.748
1.085,0.555,0.983,11.780,0.244,-41.199
1.058,0.528,0.894,11.475,9.338,-40.588
1.003,0.499,0.800,9.033,15.503,-37.415
0.954,0.497,0.730,6.287,19.653,-32.837
0.902,0.510,0.668,3.967,21.790,-28.137
0.858,0.527,0.614,2.258,21.729,-24.597
0.816,0.548,0.571,1.404,21.606,-22.156
0.794,0.569,0.539,1.709,20.691,-20.630
0.772,0.571,0.505,2.991,19.836,-20.447
0.749,0.558,0.479,4.883,18.616,-20.996
0.732,0.544,0.471,6.531,16.602,-21.118
0.729,0.524,0.482,7.629,14.709,-20.264
0.711,0.516,0.491,9.705,13.733,-18.677
0.711,0.528,0.510,11.719,13.855,-16.235
0.693,0.545,0.522,12.085,15.137,-13.306
0.686,0.559,0.526,10.559,15.930,-11.292
0.664,0.558,0.507,6.226,16.602,-8.301
0.645,0.542,0.480,1.587,16.052,-5.493
0.617,0.537,0.439,-0.610,13.855,-3.967
0.605,0.527,0.438,-0.977,10.132,-3.174
0.625,0.515,0.474,-0.427,7.507,-2.991
0.617,0.509,0.489,1.404,6.592,-2.563
0.605,0.523,0.494,2.869,5.859,-1.770
0.598,0.545,0.501,2.380,4.578,-0.549
0.602,0.552,0.519,0.793,3.418,0.427
0.600,0.546,0.536,-0.854,4.700,1.343
0.587,0.532,0.528,-1.038,7.263,2.014
0.592,0.525,0.512,1.099,9.827,2.014
0.589,0.530,0.495,2.563,11.108,2.197
0.583,0.556,0.501,3.296,10.986,2.502
0.588,0.573,0.502,2.747,9.705,2.380
0.585,0.566,0.501,0.366,8.240,2.258
0.581,0.556,0.484,-1.526,6.836,2.441
0.578,0.547,0.467,-0.854,5.249,1.892
0.575,0.537,0.471,1.465,3.418,0.916
0.588,0.558,0.503,4.456,2.502,0.061
0.592,0.573,0.522,6.958,3.723,-0.671
0.586,0.555,0.510,7.263,5.920,-1.038
0.581,0.537,0.490,6.470,7.568,-0.671
0.588,0.536,0.475,6.226,7.629,0.244
0.578,0.556,0.465,6.165,6.470,1.221

0.369,1.632,0.860,114.990,-53.955,163.208
0.381,1.856,0.931,104.004,-52.002,159.546
0.482,2.043,0.998,90.515,-48.523,151.062
0.517,2.073,1.000,78.613,-38.269,139.771
0.517,2.028,0.979,70.374,-26.184,127.136
0.559,1.899,0.881,65.796,-17.334,116.699
0.556,1.851,0.808,58.472,-9.399,105.469
0.546,1.885,0.763,48.279,-5.920,98.694
0.551,1.975,0.772,37.109,-5.981,90.881
0.566,2.071,0.808,27.527,-5.371,80.505
0.589,2.157,0.860,20.935,-3.174,67.078
0.604,2.175,0.891,15.320,2.563,50.537
0.653,2.141,0.919,9.888,13.123,32.471
0.662,2.033,0.900,3.479,24.170,17.334
0.638,1.911,0.847,-6.287,32.593,4.944
0.624,1.781,0.806,-17.700,39.978,-4.028
0.611,1.676,0.768,-31.616,45.471,-10.132
0.589,1.573,0.743,-44.861,49.316,-15.198
0.571,1.487,0.702,-54.321,52.307,-21.423
0.557,1.384,0.642,-60.120,55.237,-28.320
0.531,1.298,0.582,-63.660,59.021,-34.180
0.497,1.224,0.511,-64.941,59.448,-40.222
0.467,1.139,0.465,-64.514,59.143,-45.898
0.454,1.067,0.431,-64.453,59.509,-51.147
0.451,0.970,0.390,-66.223,59.570,-54.321
0.434,0.870,0.351,-69.275,59.814,-54.260
0.409,0.817,0.312,-69.885,58.960,-53.711
0.391,0.812,0.272,-65.979,58.533,-54.688
0.367,0.813,0.244,-59.326,58.655,-57.068
0.341,0.835,0.186,-53.589,57.678,-60.059
0.316,0.821,0.146,-48.340,57.312,-62.805
0.280,0.812,0.110,-45.349,55.481,-65.979
0.261,0.766,0.092,-45.227,51.392,-68.909
0.252,0.698,0.085,-49.866,46.875,-68.604
0.245,0.647,0.097,-54.932,42.358,-65.552
0.185,0.589,0.075,-56.458,37.476,-62.988
0.147,0.560,0.092,-53.589,34.729,-61.951
0.153,0.499,0.130,-46.570,35.217,-62.927
0.126,0.529,0.171,-36.926,37.109,-65.918
0.097,0.533,0.174,-29.236,39.429,-64.392
0.074,0.528,0.165,-27.710,39.185,-62.134
0.047,0.511,0.125,-34.241,35.950,-57.617
0.019,0.494,0.069,-43.030,28.320,-51.636
-0.025,0.477,0.016,-48.340,19.165,-46.082
-0.096,0.464,-0.027,-47.607,10.376,-41.870
-0.147,0.463,-0.041,-40.344,3.540,-41.687
-0.141,0.484,-0.005,-28.564,-3.906,-44.006
-0.170,0.451,0.003,-16.907,-11.047,-44.800
-0.140,0.428,0.040,-6.104,-16.907,-44.861
-0.128,0.428,0.065,4.822,-19.409,-44.067
-0.137,0.463,0.078,10.559,-22.583,-40.100
-0.127,0.475,0.100,7.141,-27.222,-34.241
-0.116,0.501,0.120,-5.798,-32.837,-24.414
-0.099,0.528,0.109,-20.264,-38.513,-13.855
-0.085,0.553,0.064,-31.006,-42.542,-6.531
-0.096,0.565,0.011,-35.217,-44.189,-1.892
-0.106,0.584,-0.036,-33.142,-46.875,-0.488
-0.095,0.611,-0.051,-27.222,-51.697,-1.526
-0.048,0.670,-0.024,-21.362,-57.556,-2.686
0.007,0.711,0.007,-18.982,-62.744,-3.540
0.045,0.717,0.031,-22.095,-66.040,-3.418
0.076,0.719,0.025,-27.405,-68.970,-2.441
0.103,0.716,0.006,-29.785,-72.571,-2.625
0.143,0.707,0.005,-28.809,-76.355,-5.127
0.196,0.709,0.013,-25.452,-81.360,-8.789
0.277,0.704,0.052,-21.606,-87.341,-14.038
0.375,0.697,0.109,-17.883,-91.736,-18.799
0.458,0.672,0.158,-15.564,-95.154,-21.912
0.524,0.665,0.207,-14.160,-97.046,-23.499
0.588,0.690,0.246,-14.465,-98.206,-25.452
0.632,0.705,0.252,-16.357,-98.694,-27.039
0.695,0.702,0.256,-19.226,-99.487,-28.992
0.774,0.661,0.270,-18.799,-99.548,-33.020
0.853,0.624,0.304,-14.282,-99.060,-37.476
0.943,0.586,0.367,-9.460,-97.656,-41.077
1.002,0.570,0.407,-5.798,-97.656,-44.006
1.055,0.534,0.477,-4.150,-94.604,-45.410
1.079,0.500,0.518,-4.272,-91.492,-46.326
1.135,0.481,0.562,-5.066,-87.036,-46.692
1.225,0.423,0.610,-3.174,-79.102,-47.913
1.270,0.351,0.601,0.671,-69.763,-48.950
1.309,0.258,0.583,5.066,-60.974,-48.706
1.322,0.229,0.571,7.446,-55.115,-45.471
1.300,0.249,0.570,5.615,-51.941,-38.818
1.277,0.286,0.567,1.953,-48.340,-32.410
1.239,0.309,0.554,-0.366,-42.908,-27.283
1.205,0.321,0.513,1.099,-37.964,-24.597
1.283,0.350,0.532,7.385,-33.325,-23.987
1.126,0.323,0.441,9.216,-31.311,-19.104
1.172,0.373,0.430,12.268,-22.583,-21.484
1.149,0.404,0.433,16.235,-16.724,-18.921
1.060,0.479,0.394,13.550,-16.846,-13.550
1.060,0.504,0.423,12.024,-14.832,-12.268
1.049,0.536,0.447,11.963,-12.024,-11.230
1.032,0.559,0.455,14.282,-9.338,-11.597
1.021,0.559,0.464,17.334,-4.456,-12.329
0.992,0.546,0.419,16.968,-1.038,-12.390
0.975,0.522,0.387,15.076,1.526,-10.986
0.942,0.512,0.356,12.390,3.418,-7.385
0.908,0.534,0.343,9.338,2.869,-4.089
0.889,0.579,0.363,6.348,1.526,-2.319
0.879,0.619,0.389,2.686,0.977,-1.038
0.860,0.631,0.397,0.244,1.953,-0.427
0.842,0.633,0.390,0.854,5.005,-1.099
0.820,0.627,0.360,4.700,8.423,-2.563
0.794,0.621,0.330,8.972,10.986,-4.333
0.788,0.599,0.306,11.902,13.123,-5.859
0.772,0.561,0.289,13.245,13.672,-6.104
0.761,0.564,0.290,12.573,12.573,-5.005
0.754,0.572,0.308,9.705,12.146,-3.235
0.755,0.595,0.326,6.470,10.864,-1.709
0.754,0.608,0.329,3.174,10.010,-0.427
0.753,0.608,0.321,0.000,9.766,0.610
0.751,0.596,0.306,-1.404,9.216,1.099
0.743,0.577,0.287,-1.038,8.240,0.793
0.732,0.559,0.276,1.160,6.836,0.122
0.722,0.555,0.269,4.822,5.859,-0.854
0.710,0.570,0.280,7.812,4.761,-1.648
0.716,0.586,0.295,8.789,3.784,-2.197

0.132,1.465,1.349,121.155,-91.370,237.183
0.167,1.609,1.368,116.882,-79.407,228.394
0.200,1.730,1.365,109.924,-66.223,219.666
0.234,1.883,1.402,97.412,-56.946,212.097
0.254,2.039,1.432,80.322,-51.697,204.651
0.286,2.174,1.435,66.467,-42.847,193.420
0.330,2.289,1.420,57.129,-29.785,178.467
0.329,2.332,1.329,51.331,-15.686,159.241
0.356,2.329,1.227,49.072,-1.892,137.207
0.367,2.321,1.142,43.701,8.118,118.286
0.374,2.277,1.052,36.072,13.000,101.868
0.356,2.274,1.020,26.855,17.517,83.557
0.371,2.225,1.004,15.320,21.790,65.796
0.377,2.141,0.993,3.662,24.475,49.622
0.374,2.049,0.990,-5.615,28.564,34.912
0.361,1.965,0.983,-12.329,32.898,20.569
0.365,1.882,1.000,-18.555,38.879,6.897
0.345,1.784,1.000,-26.978,44.861,-4.578
0.321,1.688,0.979,-37.964,50.659,-14.099
0.296,1.591,0.939,-49.438,56.274,-22.583
0.266,1.492,0.880,-58.411,61.890,-30.457
0.228,1.414,0.827,-63.782,65.979,-38.147
0.207,1.351,0.787,-67.566,68.726,-46.143
0.198,1.283,0.759,-72.388,70.313,-53.589
0.161,1.234,0.699,-78.003,67.261,-59.509
0.127,1.208,0.668,-83.130,64.270,-65.002
0.106,1.191,0.644,-87.036,59.998,-72.266
0.088,1.156,0.643,-90.271,57.068,-79.163
0.042,1.100,0.615,-91.797,56.213,-85.693
0.001,1.010,0.584,-91.003,56.885,-92.529
0.004,0.926,0.581,-88.196,58.533,-98.145
-0.028,0.864,0.556,-85.754,61.157,-101.257
-0.045,0.829,0.555,-85.083,63.232,-102.600
-0.083,0.814,0.509,-87.830,63.782,-102.661
-0.088,0.762,0.483,-90.942,64.209,-102.234
-0.116,0.706,0.404,-92.957,64.270,-103.333
-0.132,0.641,0.317,-92.834,62.134,-104.675
-0.154,0.562,0.239,-90.027,58.472,-104.858
-0.159,0.499,0.185,-85.999,49.988,-104.797
-0.193,0.410,0.162,-81.726,41.687,-104.004
-0.159,0.335,0.181,-74.463,31.677,-104.309
-0.159,0.280,0.190,-65.491,23.071,-102.539
-0.141,0.242,0.179,-56.641,18.005,-96.069
-0.123,0.211,0.158,-49.011,18.311,-90.027
-0.100,0.168,0.107,-43.579,19.592,-83.923
-0.107,0.132,0.042,-40.771,17.151,-74.646
-0.142,0.118,-0.017,-40.161,9.583,-64.026
-0.142,0.138,-0.039,-41.199,-1.831,-54.321
-0.125,0.138,-0.049,-44.373,-16.052,-44.983
-0.098,0.120,-0.056,-47.607,-30.518,-35.278
-0.076,0.121,-0.059,-46.936,-43.640,-26.733
-0.061,0.127,-0.058,-40.833,-55.664,-19.958
-0.047,0.135,-0.059,-33.142,-65.552,-13.611
-0.025,0.179,-0.044,-23.682,-72.815,-8.118
-0.015,0.265,-0.033,-15.808,-78.918,-3.723
-0.015,0.362,-0.037,-14.343,-85.083,1.282
-0.003,0.424,-0.055,-19.104,-90.637,7.385
-0.013,0.458,-0.093,-29.663,-97.168,15.137
-0.023,0.477,-0.128,-40.100,-105.591,22.644
0.000,0.497,-0.148,-43.030,-115.906,26.062
0.034,0.515,-0.151,-39.063,-125.366,26.001
0.101,0.552,-0.107,-28.809,-133.423,23.560
0.176,0.642,-0.031,-15.869,-140.198,19.653
0.238,0.753,0.046,-6.836,-145.325,14.709
0.312,0.827,0.128,-7.690,-146.973,11.780
0.367,0.836,0.200,-16.113,-145.508,10.559
0.413,0.814,0.234,-26.245,-144.470,10.010
0.494,0.785,0.292,-29.785,-143.860,6.531
0.584,0.795,0.380,-27.893,-144.897,1.221
0.685,0.805,0.459,-27.161,-146.484,-2.625
0.782,0.776,0.545,-25.940,-144.836,-5.676
0.866,0.684,0.628,-18.066,-138.123,-12.695
0.890,0.581,0.670,-4.639,-129.333,-21.179
0.944,0.502,0.737,10.071,-121.277,-28.381
0.978,0.519,0.824,17.578,-115.295,-30.518
1.026,0.560,0.929,17.273,-113.220,-29.663
1.104,0.593,1.023,12.573,-108.826,-28.687
1.170,0.573,1.060,8.423,-100.891,-28.931
1.211,0.520,1.063,8.362,-88.928,-30.090
1.259,0.481,1.072,12.695,-76.538,-31.128
1.220,0.489,1.039,19.287,-64.392,-33.203
1.272,0.525,1.080,23.743,-56.580,-27.710
1.042,0.576,0.943,13.062,-53.955,-20.630
1.188,0.620,0.972,13.245,-42.419,-28.137
1.166,0.632,0.978,17.212,-26.794,-25.818
1.069,0.675,0.903,16.235,-18.860,-21.973
1.038,0.653,0.857,15.564,-8.667,-23.987
0.971,0.615,0.788,13.489,0.854,-23.804
0.909,0.584,0.719,13.794,7.019,-22.888
0.878,0.561,0.668,16.357,10.620,-22.522
0.859,0.567,0.616,19.165,13.428,-21.545
0.862,0.594,0.576,21.484,13.855,-20.630
0.856,0.612,0.550,20.325,13.733,-18.494
0.829,0.626,0.525,16.418,14.343,-14.709
0.792,0.648,0.509,12.573,15.076,-10.925
0.748,0.656,0.495,10.559,15.137,-8.850
0.706,0.649,0.477,10.193,15.198,-8.423
0.685,0.644,0.464,12.024,14.954,-9.399
0.687,0.635,0.459,13.794,14.465,-10.315
0.690,0.619,0.462,15.015,14.404,-10.193
0.698,0.613,0.472,15.076,14.526,-8.850
0.694,0.625,0.493,13.550,15.381,-6.714
0.685,0.634,0.501,11.475,15.991,-5.249
0.669,0.634,0.499,7.751,16.663,-3.845
0.649,0.618,0.482,2.808,16.785,-1.953
0.631,0.605,0.458,-0.916,15.869,0.061
0.613,0.593,0.428,-2.136,14.038,1.221
0.606,0.583,0.409,-1.831,11.780,2.014
0.604,0.583,0.404,0.488,9.155,2.625
0.590,0.596,0.417,3.235,6.714,2.686
0.594,0.624,0.443,4.944,4.944,2.625
0.593,0.648,0.455,5.188,4.578,2.197
0.590,0.647,0.450,3.967,5.005,2.197
0.578,0.640,0.431,3.723,5.371,1.953
0.572,0.632,0.412,4.272,5.127,1.160
0.580,0.623,0.415,4.700,4.456,0.366
0.590,0.620,0.432,3.479,3.784,0.854
0.601,0.617,0.445,1.831,3.784,2.197
0.598,0.613,0.451,0.122,4.395,3.479

0.278,1.666,1.142,116.333,-73.792,202.942
0.334,1.823,1.220,106.873,-66.162,194.824
0.378,1.944,1.260,98.938,-56.091,183.472
0.416,2.038,1.265,92.896,-44.739,170.166
0.475,2.158,1.298,85.693,-34.912,157.227
0.535,2.285,1.314,72.876,-28.137,144.531
0.572,2.320,1.281,57.922,-18.677,131.592
0.599,2.269,1.226,46.143,-6.775,117.798
0.607,2.217,1.168,40.466,3.479,101.563
0.611,2.155,1.115,40.100,12.329,84.534
0.611,2.096,1.079,38.696,20.752,68.848
0.592,2.057,1.065,31.860,25.940,57.190
0.581,2.052,1.060,18.982,29.419,46.875
0.607,2.001,1.094,3.601,33.020,37.109
0.552,1.950,0.994,-12.024,37.231,27.039
0.596,1.797,1.033,-17.761,50.842,16.785
0.582,1.724,0.972,-24.170,56.030,6.470
0.538,1.593,0.905,-31.311,53.772,-2.014
0.479,1.514,0.836,-38.635,57.434,-7.507
0.483,1.431,0.811,-44.922,64.270,-14.343
0.486,1.341,0.765,-50.720,67.749,-21.790
0.453,1.253,0.697,-56.152,67.932,-26.245
0.425,1.193,0.638,-60.059,67.627,-29.907
0.396,1.151,0.597,-63.232,66.040,-33.447
0.366,1.106,0.586,-66.711,64.148,-35.645
0.341,1.083,0.592,-69.885,62.317,-37.720
0.308,1.075,0.569,-71.594,62.683,-40.466
0.284,1.048,0.539,-71.594,68.237,-43.762
0.237,0.993,0.471,-71.655,71.960,-47.119
0.202,0.961,0.397,-72.327,72.266,-50.293
0.160,0.902,0.344,-72.754,72.021,-52.795
0.132,0.908,0.295,-75.134,68.848,-54.321
0.054,0.904,0.253,-79.041,61.096,-55.908
0.032,0.898,0.231,-83.252,52.856,-60.730
0.008,0.850,0.216,-84.961,44.922,-66.956
0.004,0.777,0.228,-82.886,39.673,-72.205
0.008,0.688,0.276,-76.294,38.513,-76.172
-0.001,0.635,0.256,-65.552,39.978,-80.688
-0.021,0.538,0.220,-55.969,44.617,-83.069
-0.055,0.485,0.166,-52.856,45.410,-81.848
-0.073,0.441,0.117,-52.795,42.480,-79.224
-0.111,0.426,0.078,-55.603,36.316,-73.975
-0.149,0.418,0.056,-60.730,26.611,-68.420
-0.157,0.381,0.046,-62.866,15.259,-64.331
-0.133,0.353,0.044,-60.242,4.272,-62.439
-0.141,0.330,0.012,-54.382,-5.981,-61.096
-0.150,0.271,-0.028,-49.133,-13.428,-57.861
-0.134,0.227,-0.039,-42.664,-18.494,-55.298
-0.143,0.194,-0.028,-34.058,-24.231,-51.575
-0.132,0.238,-0.006,-23.499,-31.433,-48.889
-0.114,0.266,0.020,-15.747,-38.757,-46.631
-0.073,0.283,0.049,-14.038,-46.204,-42.175
-0.028,0.269,0.058,-17.883,-52.734,-35.339
-0.001,0.248,0.031,-25.818,-58.655,-25.818
0.000,0.228,-0.005,-31.921,-63.721,-15.869
-0.004,0.232,-0.027,-33.264,-69.580,-6.836
-0.017,0.271,-0.030,-31.250,-77.271,-0.305
-0.028,0.322,-0.007,-26.428,-85.754,4.578
-0.004,0.369,0.045,-20.386,-93.506,6.958
0.015,0.422,0.100,-15.015,-99.854,8.118
0.060,0.459,0.161,-11.047,-105.164,8.789
0.117,0.521,0.211,-6.836,-109.192,6.470
0.190,0.556,0.222,-1.831,-108.398,1.831
0.250,0.565,0.179,3.357,-103.210,-2.747
0.314,0.518,0.125,7.507,-97.046,-6.592
0.337,0.500,0.027,9.338,-94.421,-8.606
0.354,0.485,-0.049,8.606,-94.849,-7.385
0.398,0.527,-0.039,5.981,-101.074,-6.042
0.487,0.586,0.038,2.502,-111.206,-5.371
0.585,0.619,0.162,0.183,-118.835,-6.775
0.652,0.594,0.271,1.282,-120.789,-9.338
0.727,0.552,0.358,7.019,-118.408,-13.611
0.771,0.508,0.387,14.771,-112.122,-17.761
0.874,0.505,0.484,22.400,-105.408,-21.362
0.955,0.568,0.563,26.123,-107.422,-24.353
1.037,0.640,0.685,22.583,-109.192,-23.315
1.144,0.680,0.802,16.663,-107.117,-22.583
1.203,0.689,0.890,12.512,-100.586,-23.193
1.229,0.648,0.912,14.893,-90.210,-26.428
1.278,0.628,0.947,22.095,-78.613,-31.311
1.257,0.669,0.914,29.541,-68.176,-36.926
1.349,0.678,0.954,33.447,-61.768,-34.180
1.105,0.675,0.832,19.958,-61.157,-27.527
1.293,0.723,0.874,16.479,-52.368,-36.743
1.276,0.708,0.897,17.578,-35.950,-34.546
1.212,0.741,0.823,12.512,-28.564,-30.762
1.187,0.670,0.777,10.681,-19.165,-32.593
1.142,0.596,0.703,9.460,-8.667,-32.776
1.100,0.552,0.649,12.817,-1.404,-31.982
1.071,0.567,0.622,17.090,3.662,-29.602
1.029,0.605,0.595,15.442,5.920,-26.184
0.999,0.611,0.574,10.437,5.798,-21.790
0.975,0.606,0.550,5.066,5.432,-17.883
0.959,0.591,0.524,2.075,5.981,-15.381
0.929,0.580,0.493,1.892,7.263,-14.160
0.885,0.577,0.458,3.418,7.751,-13.489
0.851,0.575,0.452,5.554,6.409,-12.817
0.830,0.586,0.478,7.141,4.578,-11.719
0.811,0.609,0.502,8.728,4.272,-11.292
0.800,0.615,0.504,9.155,5.981,-10.803
0.786,0.597,0.486,9.216,8.362,-9.827
0.777,0.568,0.464,9.094,9.827,-9.155
0.762,0.565,0.462,8.301,10.254,-7.019
0.742,0.566,0.459,5.737,10.986,-4.395
0.715,0.557,0.438,1.770,10.925,-1.770
0.686,0.551,0.406,-2.075,9.338,0.977
0.665,0.550,0.379,-4.211,6.226,2.930
0.653,0.552,0.403,-4.517,2.441,4.517
0.665,0.573,0.464,-3.784,0.732,5.066
0.660,0.577,0.492,-1.648,2.563,4.395
0.645,0.565,0.476,1.648,6.165,2.991
0.638,0.550,0.449,4.333,8.850,1.648
0.641,0.543,0.430,6.714,10.315,1.404
0.629,0.559,0.420,7.996,10.254,1.953
0.634,0.588,0.443,8.057,8.545,2.075
0.646,0.596,0.464,5.005,8.057,2.563
0.638,0.588,0.459,0.061,8.423,4.150
0.625,0.584,0.434,-3.784,8.423,5.188
0.613,0.583,0.400,-4.272,7.690,5.127

0.335,1.557,1.027,128.784,-55.420,203.369
0.334,1.592,1.027,120.911,-43.152,197.327
0.327,1.634,1.005,118.103,-30.457,188.721
0.314,1.742,0.994,115.723,-22.888,180.420
0.326,1.900,1.034,106.750,-19.104,174.866
0.352,2.140,1.115,91.003,-17.090,170.166
0.343,2.297,1.143,71.350,-12.878,163.269
0.422,2.439,1.126,52.490,-3.845,149.719
0.445,2.452,1.059,41.260,9.521,132.996
0.430,2.438,0.967,34.058,23.193,116.699
0.415,2.461,0.881,28.931,34.607,98.389
0.407,2.480,0.802,20.020,40.588,81.604
0.389,2.484,0.757,7.080,41.992,64.880
0.386,2.397,0.702,-9.644,41.931,49.255
0.382,2.346,0.612,-24.597,42.419,30.457
0.382,2.156,0.589,-31.372,46.265,13.611
0.375,2.016,0.544,-34.180,42.908,-3.479
0.355,1.859,0.522,-33.813,38.391,-19.653
0.347,1.729,0.523,-34.180,40.039,-33.508
0.349,1.604,0.541,-37.720,42.053,-44.373
0.356,1.477,0.580,-44.800,41.382,-52.124
0.358,1.382,0.620,-52.429,42.969,-55.603
0.339,1.302,0.623,-60.791,45.898,-57.312
0.329,1.231,0.598,-70.313,48.584,-58.533
0.311,1.149,0.531,-80.627,50.598,-58.533
0.285,1.079,0.446,-89.050,50.232,-58.289
0.243,1.056,0.361,-94.971,48.279,-58.044
0.176,1.032,0.275,-98.816,45.044,-59.143
0.127,1.024,0.214,-99.121,39.001,-62.744
0.113,1.013,0.189,-96.008,30.090,-68.665
0.028,0.952,0.164,-92.163,22.705,-74.951
-0.001,0.828,0.183,-86.548,13.977,-83.862
0.093,0.689,0.300,-75.317,15.076,-91.309
0.054,0.626,0.333,-60.242,23.437,-93.933
0.001,0.612,0.309,-44.800,33.813,-94.299
-0.005,0.602,0.239,-38.452,42.053,-94.604
-0.020,0.541,0.157,-45.532,45.105,-89.966
-0.051,0.461,0.027,-58.289,41.504,-81.665
-0.087,0.405,-0.063,-68.848,35.400,-72.449
-0.115,0.357,-0.135,-72.937,22.888,-66.772
-0.147,0.309,-0.168,-69.214,8.057,-63.660
-0.182,0.257,-0.148,-59.753,-4.578,-63.049
-0.188,0.210,-0.081,-45.349,-15.076,-62.988
-0.152,0.194,0.015,-29.541,-23.010,-62.134
-0.153,0.226,0.056,-14.771,-28.259,-59.387
-0.166,0.250,0.058,-5.371,-30.457,-54.749
-0.174,0.272,0.048,-4.944,-30.762,-48.523
-0.177,0.282,0.022,-11.963,-33.386,-41.443
-0.179,0.274,-0.007,-21.240,-39.307,-33.630
-0.177,0.257,-0.024,-28.809,-47.180,-26.062
-0.149,0.246,-0.018,-33.325,-55.725,-19.531
-0.138,0.245,0.004,-34.546,-63.782,-13.855
-0.100,0.240,0.028,-31.799,-69.946,-9.460
-0.067,0.259,0.067,-25.574,-74.890,-7.324
-0.051,0.286,0.083,-18.616,-79.956,-7.324
-0.006,0.270,0.087,-13.306,-83.740,-8.362
0.055,0.214,0.091,-11.047,-86.060,-7.080
0.099,0.177,0.089,-10.315,-88.806,-2.563
0.125,0.195,0.077,-8.423,-92.468,4.333
0.163,0.289,0.096,-4.639,-96.008,12.024
0.271,0.461,0.138,0.488,-97.595,16.846
0.361,0.647,0.169,4.944,-95.703,18.188
0.410,0.806,0.172,8.789,-90.820,15.808
0.447,0.884,0.141,11.780,-86.060,9.827
0.485,0.885,0.122,12.329,-82.947,2.258
0.509,0.867,0.109,13.000,-83.130,-4.028
0.540,0.860,0.124,13.916,-86.792,-8.911
0.580,0.906,0.187,13.184,-92.346,-12.024
0.606,0.957,0.263,10.132,-97.290,-14.038
0.708,0.985,0.352,9.399,-97.290,-19.531
0.836,0.989,0.442,12.573,-93.079,-28.442
0.926,0.940,0.451,17.578,-88.989,-38.513
0.995,0.819,0.464,21.667,-79.956,-47.241
1.007,0.637,0.435,23.193,-72.876,-53.467
0.993,0.480,0.404,25.085,-67.322,-55.359
0.971,0.399,0.385,28.320,-64.514,-53.894
0.977,0.418,0.415,29.419,-65.735,-50.171
1.016,0.474,0.476,25.330,-68.298,-44.556
1.146,0.523,0.516,18.860,-69.763,-39.551
1.187,0.523,0.564,15.137,-65.796,-37.109
1.336,0.552,0.642,18.311,-60.120,-33.081
1.108,0.569,0.547,14.221,-58.228,-23.193
1.204,0.633,0.615,14.709,-42.908,-26.245
1.185,0.669,0.644,18.127,-31.982,-24.353
1.112,0.770,0.619,13.794,-25.940,-18.127
1.124,0.778,0.622,10.620,-17.639,-18.433
1.119,0.778,0.572,7.141,-12.756,-20.752
1.097,0.734,0.535,5.859,-7.568,-21.118
1.063,0.707,0.497,8.118,-4.272,-21.973
1.027,0.685,0.476,11.597,-3.418,-23.499
0.997,0.677,0.467,14.160,-3.540,-24.536
0.966,0.680,0.474,13.672,-4.395,-23.743
0.942,0.683,0.485,9.705,-4.700,-21.423
0.922,0.683,0.486,5.005,-4.028,-18.799
0.899,0.673,0.468,0.305,-2.686,-16.418
0.883,0.661,0.445,-2.136,-0.488,-14.954
0.863,0.644,0.417,-2.686,2.075,-14.099
0.837,0.630,0.385,-1.160,4.944,-13.306
0.807,0.628,0.351,0.854,7.507,-12.207
0.773,0.644,0.333,2.014,8.118,-10.681
0.742,0.660,0.316,0.793,6.531,-9.155
0.718,0.651,0.315,-1.160,3.723,-7.874
0.713,0.637,0.316,-1.709,1.587,-7.385
0.714,0.615,0.323,-0.427,0.305,-7.751
0.720,0.611,0.347,1.892,-0.305,-7.874
0.718,0.611,0.369,4.272,-0.061,-8.057
0.707,0.609,0.379,5.432,1.038,-7.568
0.695,0.608,0.381,4.578,1.709,-6.409
0.681,0.605,0.384,2.930,1.892,-4.761
0.675,0.596,0.392,1.160,1.892,-3.540
0.658,0.599,0.381,-0.427,1.587,-2.563
0.650,0.607,0.365,-0.793,0.854,-2.319
0.662,0.620,0.383,-0.610,-0.366,-2.686
0.674,0.621,0.403,-0.854,-0.183,-2.991
0.667,0.620,0.394,-0.488,0.610,-2.991
0.652,0.620,0.371,-0.427,1.343,-3.296
0.635,0.618,0.347,0.305,1.221,-3.906
0.630,0.602,0.330,1.953,0.549,-5.493
0.634,0.589,0.346,4.272,-0.061,-6.653

0.255,1.646,1.098,132.141,-48.340,189.209
0.292,2.026,1.196,123.901,-45.288,188.354
0.356,2.375,1.299,107.544,-44.861,184.448
0.444,2.635,1.368,88.867,-39.490,173.889
0.531,2.779,1.391,73.547,-28.687,156.494
0.597,2.839,1.370,62.683,-14.709,134.644
0.646,2.924,1.363,51.819,-2.319,114.746
0.671,3.032,1.358,34.485,6.836,97.168
0.674,3.057,1.336,15.381,15.930,77.698
0.650,2.990,1.282,0.366,27.100,55.359
0.630,2.891,1.224,-6.104,40.161,31.372
0.587,2.762,1.163,-9.033,50.415,7.080
0.561,2.571,1.099,-13.184,58.899,-16.907
0.563,2.304,1.032,-20.996,67.749,-37.720
0.539,2.021,0.960,-32.898,74.707,-51.636
0.504,1.764,0.873,-44.983,78.918,-60.486
0.473,1.556,0.781,-56.519,81.360,-65.613
0.426,1.399,0.688,-68.298,79.773,-68.726
0.380,1.226,0.631,-79.407,75.195,-70.313
0.386,1.060,0.639,-85.754,72.815,-71.167
0.377,0.949,0.637,-85.938,74.463,-72.693
0.333,0.884,0.597,-84.229,77.637,-74.402
0.278,0.832,0.530,-86.426,79.529,-75.195
0.229,0.751,0.480,-90.637,80.200,-74.951
0.194,0.733,0.427,-93.506,78.796,-74.219
0.147,0.733,0.363,-91.675,78.003,-74.890
0.084,0.741,0.320,-85.876,79.285,-77.515
0.037,0.737,0.312,-79.346,77.454,-82.642
0.006,0.688,0.310,-74.402,75.500,-88.135
-0.032,0.617,0.307,-71.777,73.364,-91.370
-0.081,0.550,0.276,-69.214,69.702,-92.957
-0.127,0.466,0.254,-65.491,70.251,-93.750
-0.144,0.396,0.214,-59.692,68.909,-95.642
-0.198,0.313,0.163,-53.101,66.650,-94.360
-0.233,0.238,0.159,-46.448,61.890,-91.614
-0.240,0.197,0.114,-40.771,47.607,-88.623
-0.312,0.088,0.067,-37.415,37.231,-79.468
-0.331,-0.023,0.056,-32.715,36.621,-71.594
-0.325,-0.069,0.037,-24.109,30.029,-65.308
-0.359,-0.045,0.025,-16.479,20.874,-53.894
-0.392,0.029,0.029,-14.709,10.498,-38.696
-0.398,0.114,0.050,-20.508,-2.014,-22.888
-0.396,0.188,0.079,-31.494,-15.320,-6.775
-0.404,0.247,0.090,-43.884,-26.855,7.935
-0.435,0.307,0.101,-52.246,-35.583,21.118
-0.492,0.380,0.129,-54.688,-43.701,29.236
-0.513,0.435,0.160,-52.917,-54.993,31.738
-0.474,0.467,0.207,-47.119,-65.552,30.151
-0.393,0.510,0.241,-39.917,-72.937,28.503
-0.291,0.543,0.288,-34.058,-74.829,29.236
-0.236,0.599,0.305,-31.067,-75.562,32.104
-0.182,0.689,0.274,-30.334,-75.928,33.630
-0.131,0.765,0.205,-30.884,-74.585,31.799
-0.094,0.814,0.114,-34.180,-75.806,28.809
-0.004,0.820,0.022,-38.696,-80.322,24.109
0.082,0.772,-0.081,-41.809,-85.083,19.287
0.150,0.705,-0.178,-43.274,-90.881,15.869
0.226,0.656,-0.233,-39.673,-98.999,12.024
0.317,0.652,-0.251,-31.189,-109.680,6.165
0.412,0.639,-0.219,-23.499,-120.911,-0.366
0.504,0.648,-0.162,-20.264,-131.165,-3.235
0.603,0.684,-0.069,-17.395,-141.479,-5.798
0.697,0.684,0.036,-10.925,-149.048,-12.085
0.815,0.699,0.159,-2.930,-150.635,-18.921
0.915,0.685,0.280,4.883,-148.743,-27.222
0.966,0.658,0.356,9.216,-144.897,-33.813
1.016,0.640,0.383,7.751,-142.761,-37.048
1.102,0.618,0.457,5.615,-139.282,-39.124
1.195,0.628,0.545,5.432,-136.963,-40.833
1.290,0.706,0.679,6.714,-136.475,-42.175
1.384,0.783,0.812,9.705,-130.981,-45.471
1.468,0.762,0.895,13.245,-119.507,-52.551
1.521,0.687,0.926,16.357,-102.844,-58.533
1.512,0.617,0.895,17.700,-86.243,-61.035
1.486,0.464,0.879,20.447,-71.045,-62.988
1.661,0.514,0.887,25.696,-63.354,-65.430
1.422,0.316,0.790,18.066,-61.646,-48.706
1.433,0.342,0.726,6.165,-57.617,-48.767
1.527,0.355,0.807,6.287,-47.302,-46.204
1.370,0.429,0.765,0.122,-42.175,-34.302
1.303,0.410,0.724,-2.747,-35.217,-30.029
1.280,0.341,0.681,1.160,-25.757,-31.738
1.281,0.344,0.678,9.705,-18.127,-32.959
1.238,0.372,0.673,21.301,-10.864,-30.884
1.176,0.426,0.645,27.161,-4.761,-26.550
1.122,0.486,0.620,23.865,-0.916,-21.729
1.072,0.512,0.607,14.526,1.465,-15.076
1.015,0.537,0.575,5.188,3.479,-7.812
0.974,0.549,0.543,0.488,6.287,-3.357
0.931,0.568,0.512,0.549,9.521,-2.258
0.884,0.579,0.471,2.991,11.475,-2.869
0.851,0.576,0.439,5.676,12.024,-4.211
0.818,0.567,0.416,7.080,11.780,-5.005
0.787,0.559,0.404,7.446,11.414,-5.005
0.762,0.563,0.401,7.080,10.559,-4.639
0.733,0.574,0.401,6.226,10.010,-3.479
0.697,0.572,0.398,4.822,10.193,-2.319
0.697,0.570,0.399,4.456,11.658,-1.526
0.693,0.566,0.395,4.944,13.916,-0.854
0.671,0.573,0.374,4.333,14.648,0.061
0.650,0.575,0.344,3.235,14.465,1.038
0.631,0.571,0.324,1.953,13.245,2.075
0.613,0.568,0.323,0.916,10.620,3.296
0.613,0.577,0.343,0.610,7.935,3.662
0.611,0.592,0.354,1.770,5.737,3.174
0.612,0.594,0.352,2.441,4.578,2.441
0.608,0.592,0.348,2.563,4.028,2.441
0.609,0.590,0.345,2.930,2.991,2.808
0.612,0.594,0.350,3.479,2.563,2.808
0.610,0.611,0.354,4.089,2.075,2.747
0.617,0.622,0.353,4.028,1.465,2.197
0.617,0.628,0.349,2.502,0.854,2.319
0.618,0.626,0.352,1.099,-0.183,2.686
0.623,0.621,0.363,0.549,-1.221,2.441
0.626,0.616,0.372,1.587,-1.709,1.587
0.625,0.613,0.374,3.113,-1.770,0.244
0.627,0.606,0.375,4.761,-2.197,-1.160
0.632,0.605,0.382,5.676,-2.869,-2.258
0.640,0.607,0.394,5.554,-3.357,-2.686
