aX,aY,aZ,gX,gY,gZ
1.047,1.198,0.455,59.265,-60.791,24.292
1.119,1.250,0.494,54.260,-59.509,24.353
1.154,1.342,0.538,47.363,-58.594,27.100
1.213,1.487,0.595,40.039,-55.664,29.358
1.240,1.673,0.659,32.288,-50.964,30.579
1.237,1.894,0.723,24.475,-45.654,29.297
1.240,2.132,0.797,14.709,-40.100,24.902
1.273,2.338,0.881,2.319,-33.325,17.029
1.191,2.447,0.899,-11.353,-25.208,7.263
1.217,2.555,0.945,-24.475,-14.404,-5.310
1.158,2.593,0.919,-42.358,-8.850,-14.282
1.112,2.607,0.888,-61.462,-2.686,-26.428
1.090,2.581,0.861,-76.721,4.395,-41.138
1.043,2.544,0.849,-87.036,12.024,-56.946
0.980,2.453,0.840,-96.680,18.982,-72.510
0.904,2.299,0.827,-108.826,23.987,-86.243
0.835,2.072,0.810,-121.643,26.794,-97.717
0.804,1.893,0.815,-131.042,30.334,-109.375
0.751,1.710,0.797,-137.878,33.875,-118.591
0.687,1.552,0.758,-144.958,35.767,-123.657
0.618,1.428,0.695,-151.184,39.246,-127.625
0.546,1.337,0.647,-157.654,40.466,-131.470
0.481,1.213,0.625,-165.894,40.100,-136.536
0.435,1.016,0.626,-176.208,38.940,-142.822
0.411,0.722,0.593,-189.636,38.696,-148.499
0.392,0.395,0.511,-199.219,40.710,-151.611
0.365,0.064,0.418,-197.083,43.213,-153.198
0.361,-0.252,0.331,-187.744,44.128,-150.635
0.364,-0.497,0.239,-178.833,42.847,-141.235
0.363,-0.660,0.177,-169.495,38.086,-127.686
0.369,-0.740,0.118,-154.846,28.748,-113.953
0.383,-0.704,0.101,-138.489,15.320,-102.966
0.412,-0.689,0.130,-126.160,2.808,-95.154
0.476,-0.706,0.188,-117.249,-2.930,-88.257
0.553,-0.715,0.245,-108.643,-1.709,-81.177
0.544,-0.682,0.229,-100.220,3.601,-72.937
0.528,-0.640,0.178,-91.797,10.376,-65.125
0.514,-0.616,0.119,-85.083,15.869,-58.594
0.511,-0.614,0.047,-78.979,17.761,-52.856
0.531,-0.581,-0.040,-72.449,15.991,-47.119
0.558,-0.546,-0.105,-66.284,11.475,-41.199
0.576,-0.500,-0.142,-60.242,5.188,-34.485
0.583,-0.471,-0.144,-52.673,0.977,-28.198
0.604,-0.430,-0.115,-43.884,-0.061,-22.522
0.603,-0.369,-0.092,-35.706,0.549,-17.395
0.605,-0.299,-0.087,-28.992,1.526,-12.878
0.628,-0.227,-0.092,-27.039,1.343,-9.399
0.668,-0.199,-0.108,-30.701,-0.366,-5.066
0.703,-0.179,-0.135,-36.560,-2.930,0.122
0.734,-0.149,-0.165,-38.086,-4.822,5.676
0.745,-0.091,-0.202,-32.654,-5.493,8.911
0.737,-0.031,-0.231,-23.682,-5.798,9.766
0.739,0.011,-0.234,-15.808,-6.775,9.644
0.771,0.053,-0.218,-10.559,-8.240,9.277
0.790,0.080,-0.219,-8.484,-9.827,9.949
0.797,0.113,-0.227,-8.423,-11.963,11.902
0.810,0.136,-0.213,-7.446,-14.648,13.367
0.831,0.166,-0.182,-5.554,-16.541,14.526
0.846,0.213,-0.148,-3.174,-16.541,15.076
0.853,0.258,-0.126,-0.793,-16.174,14.771
0.883,0.286,-0.115,0.366,-15.015,13.306
0.919,0.278,-0.111,0.061,-13.306,12.390
0.942,0.282,-0.107,-0.671,-11.658,12.756
0.938,0.300,-0.099,-0.916,-10.742,13.489
0.934,0.325,-0.074,0.122,-9.888,13.672
0.922,0.351,-0.038,1.221,-8.850,13.245
0.925,0.381,-0.022,0.366,-6.226,11.292
0.937,0.383,-0.029,-0.488,-4.150,9.827
0.965,0.363,-0.054,-1.770,-2.136,8.362
0.984,0.334,-0.090,-2.808,-0.183,7.751
0.970,0.335,-0.127,-2.930,0.427,8.545
0.964,0.366,-0.136,-2.197,0.549,9.277
0.948,0.388,-0.125,-1.709,0.000,10.254
0.932,0.409,-0.110,-0.732,-0.122,10.193
0.916,0.422,-0.106,1.709,0.854,8.057
0.900,0.437,-0.117,3.601,2.197,5.310
0.912,0.440,-0.135,4.333,3.357,2.686
0.919,0.411,-0.158,3.662,3.784,0.854
0.918,0.389,-0.180,2.625,3.540,0.122
0.920,0.374,-0.187,2.686,2.625,0.122
0.913,0.386,-0.172,2.747,1.160,1.465
0.904,0.411,-0.150,3.113,0.305,2.075
0.899,0.423,-0.134,3.906,0.305,0.977
0.900,0.417,-0.113,4.395,1.465,-0.549
0.895,0.400,-0.114,4.517,4.028,-1.953
0.889,0.375,-0.135,3.662,6.287,-2.502
0.880,0.356,-0.155,1.831,6.958,-2.136
0.880,0.343,-0.165,0.610,6.348,-0.977
0.886,0.352,-0.168,0.427,5.127,0.549
0.887,0.370,-0.178,0.427,4.211,1.831
0.877,0.372,-0.196,0.671,3.784,2.319
0.869,0.380,-0.204,1.343,3.479,2.136
0.861,0.390,-0.203,2.380,2.991,1.587
0.859,0.395,-0.201,3.967,2.563,0.854
0.865,0.406,-0.207,5.249,2.258,0.183
0.869,0.405,-0.210,5.493,1.953,-0.488
0.885,0.393,-0.203,4.822,1.465,-0.977
0.896,0.375,-0.197,4.150,1.160,-0.671
0.899,0.373,-0.193,3.906,0.854,0.000
0.884,0.393,-0.187,4.456,-0.061,0.916
0.878,0.408,-0.183,4.089,-1.526,1.099
0.882,0.414,-0.172,2.625,-2.686,1.099
0.888,0.420,-0.161,1.953,-2.930,0.732
0.898,0.414,-0.156,2.380,-1.770,-0.549
0.898,0.407,-0.160,3.845,-0.488,-1.648
0.893,0.412,-0.166,4.700,-0.305,-2.319
0.891,0.410,-0.159,4.150,-1.099,-2.502
0.896,0.409,-0.146,2.563,-2.014,-2.563
0.901,0.391,-0.140,1.526,-2.319,-2.563
0.903,0.374,-0.145,1.038,-2.075,-2.625
0.915,0.360,-0.156,1.892,-1.587,-2.686
0.922,0.351,-0.163,3.052,-1.343,-2.380
0.923,0.360,-0.162,2.991,-1.465,-1.465
0.918,0.377,-0.160,2.502,-1.526,-0.122
0.912,0.386,-0.160,1.831,-1.343,0.549
0.903,0.394,-0.165,2.258,-0.793,0.427
0.896,0.401,-0.159,3.418,-1.038,0.305
0.897,0.411,-0.150,2.625,-1.526,0.122
0.906,0.402,-0.151,0.610,-1.465,-0.061

1.118,1.561,0.454,62.256,-73.792,61.279
1.160,1.795,0.580,62.256,-73.059,55.115
1.257,1.968,0.674,58.167,-68.420,43.579
1.341,2.085,0.753,48.279,-60.547,31.250
1.374,2.157,0.808,35.339,-50.415,20.203
1.380,2.218,0.828,21.851,-41.260,10.498
1.344,2.243,0.832,7.629,-33.569,1.709
1.287,2.242,0.837,-4.944,-26.917,-6.836
1.255,2.213,0.838,-14.832,-19.226,-16.968
1.118,2.129,0.804,-22.156,-11.841,-27.710
1.085,2.044,0.784,-26.917,-2.808,-41.748
1.030,1.907,0.744,-31.738,3.967,-52.612
0.944,1.807,0.692,-40.283,8.362,-60.059
0.865,1.714,0.660,-51.941,10.559,-63.965
0.771,1.645,0.642,-67.688,11.108,-65.063
0.726,1.601,0.652,-81.604,12.817,-67.871
0.663,1.549,0.626,-91.064,16.907,-71.716
0.581,1.492,0.568,-96.313,20.752,-76.843
0.518,1.457,0.503,-98.633,23.865,-83.618
0.473,1.449,0.457,-97.290,25.635,-91.858
0.440,1.452,0.427,-94.604,25.635,-101.379
0.444,1.366,0.434,-92.163,25.635,-113.037
0.479,1.241,0.444,-93.750,27.527,-123.413
0.498,1.102,0.426,-101.501,29.480,-128.479
0.510,0.970,0.392,-114.502,30.396,-129.700
0.526,0.818,0.359,-130.493,29.297,-128.052
0.539,0.684,0.347,-144.348,28.992,-124.451
0.544,0.564,0.357,-152.527,30.090,-121.155
0.560,0.432,0.365,-156.250,31.555,-118.652
0.538,0.281,0.364,-157.593,34.363,-116.455
0.520,0.131,0.328,-154.297,34.729,-114.990
0.520,-0.003,0.274,-145.386,33.875,-115.540
0.503,-0.122,0.208,-135.498,32.227,-116.272
0.517,-0.272,0.136,-127.991,28.320,-115.967
0.564,-0.429,0.054,-124.207,23.010,-111.023
0.588,-0.529,0.004,-123.169,16.785,-100.464
0.621,-0.595,-0.025,-119.629,8.850,-87.708
0.641,-0.609,-0.010,-113.281,1.953,-75.623
0.663,-0.569,0.033,-103.821,-0.183,-64.880
0.655,-0.507,0.050,-88.562,2.869,-58.350
0.643,-0.466,0.048,-72.144,6.104,-56.091
0.658,-0.456,0.043,-65.125,7.690,-52.368
0.680,-0.483,0.015,-63.843,6.104,-45.837
0.703,-0.474,-0.027,-63.049,4.089,-37.476
0.713,-0.427,-0.072,-60.181,2.563,-28.198
0.689,-0.363,-0.111,-54.199,0.366,-19.897
0.670,-0.302,-0.118,-45.166,-3.418,-14.038
0.675,-0.253,-0.086,-33.936,-7.080,-11.597
0.703,-0.195,-0.050,-22.705,-8.667,-11.353
0.736,-0.135,-0.020,-12.695,-8.362,-11.414
0.754,-0.083,0.003,-6.287,-6.836,-10.559
0.768,-0.045,-0.002,-3.723,-4.272,-8.606
0.788,-0.022,-0.024,-4.700,-2.075,-5.310
0.790,0.012,-0.057,-7.141,-1.404,-1.221
0.786,0.040,-0.084,-8.850,-2.258,3.174
0.797,0.085,-0.106,-9.888,-3.601,6.531
0.814,0.128,-0.125,-10.193,-4.578,9.033
0.822,0.174,-0.132,-9.033,-5.737,11.353
0.833,0.235,-0.124,-6.165,-6.958,12.085
0.828,0.303,-0.107,-2.930,-7.751,11.780
0.829,0.344,-0.101,-0.549,-7.385,10.315
0.851,0.363,-0.099,0.916,-6.775,7.935
0.868,0.367,-0.097,2.075,-6.226,5.554
0.879,0.372,-0.097,3.967,-5.615,3.662
0.886,0.377,-0.095,6.409,-4.395,1.160
0.897,0.373,-0.095,8.118,-2.869,-1.099
0.906,0.373,-0.095,9.277,-1.587,-2.319
0.899,0.390,-0.097,9.827,-1.160,-2.930
0.888,0.399,-0.098,9.338,-2.136,-3.662
0.898,0.401,-0.077,7.202,-2.441,-4.089
0.906,0.390,-0.075,4.639,-2.686,-4.333
0.915,0.366,-0.085,2.930,-1.648,-4.944
0.922,0.332,-0.100,2.502,-0.488,-5.493
0.917,0.309,-0.116,3.601,0.488,-5.615
0.912,0.300,-0.124,6.042,0.671,-5.310
0.918,0.301,-0.123,8.179,0.366,-4.822
0.923,0.309,-0.117,9.094,-0.549,-3.723
0.920,0.323,-0.106,8.118,-1.831,-2.441
0.921,0.341,-0.096,5.249,-2.625,-0.488
0.927,0.362,-0.088,1.099,-2.991,2.075
0.919,0.372,-0.085,-2.319,-3.479,4.517
0.911,0.394,-0.080,-2.991,-3.540,5.432
0.914,0.413,-0.074,-1.038,-2.808,4.578
0.915,0.419,-0.075,1.648,-1.282,2.808
0.915,0.411,-0.080,3.784,0.244,1.282
0.911,0.405,-0.093,4.883,1.221,0.305
0.907,0.400,-0.104,4.822,1.465,-0.122
0.898,0.401,-0.121,4.333,1.160,-0.305
0.904,0.411,-0.132,3.662,-0.122,-0.732
0.918,0.401,-0.129,3.357,-1.343,-1.282
0.922,0.400,-0.123,2.319,-1.526,-1.038
0.927,0.395,-0.119,3.113,-1.709,-1.282
0.926,0.388,-0.115,4.028,-1.648,-1.404
0.913,0.379,-0.111,4.822,-1.770,-1.282
0.906,0.392,-0.096,5.066,-2.441,-1.099
0.903,0.404,-0.075,3.784,-2.808,-1.099
0.912,0.405,-0.064,2.014,-2.197,-1.770
0.920,0.397,-0.064,0.549,-0.854,-2.441
0.923,0.377,-0.072,-1.160,0.000,-2.258
0.912,0.359,-0.079,-2.014,0.366,-1.831
0.904,0.347,-0.083,-1.587,0.427,-1.404
0.894,0.344,-0.084,-0.732,0.610,-1.099
0.895,0.341,-0.094,0.183,0.854,-1.160
0.899,0.340,-0.109,2.136,1.099,-1.099
0.897,0.352,-0.133,3.540,1.343,-0.977
0.898,0.369,-0.148,3.418,0.610,-0.366
0.901,0.376,-0.138,1.648,-0.488,0.305
0.895,0.398,-0.125,-1.282,-2.014,1.465
0.897,0.400,-0.109,-3.357,-2.930,1.648
0.898,0.386,-0.102,-3.601,-2.869,0.854
0.893,0.373,-0.112,-2.014,-1.770,0.000
0.896,0.383,-0.112,-0.061,-1.648,-0.488
0.904,0.382,-0.107,0.183,-2.136,-0.793
0.913,0.380,-0.100,-1.343,-2.136,-0.427
0.912,0.373,-0.105,-1.831,-2.014,0.183
0.903,0.381,-0.112,-2.075,-2.319,0.305
0.901,0.381,-0.110,-2.930,-3.174,0.183
0.912,0.368,-0.106,-4.456,-3.662,0.122
0.911,0.362,-0.103,-5.615,-4.150,0.549

1.047,1.481,0.676,56.030,-82.642,53.284
1.146,1.642,0.769,50.964,-76.416,47.180
1.235,1.752,0.793,45.715,-65.125,39.368
1.279,1.864,0.791,38.269,-53.894,32.898
1.260,2.001,0.806,28.137,-46.875,28.198
1.259,2.150,0.822,18.311,-41.931,21.545
1.231,2.214,0.856,9.399,-36.499,11.719
1.187,2.283,0.880,-0.183,-31.311,1.038
1.190,2.325,0.913,-10.010,-24.658,-11.719
1.166,2.288,0.931,-21.851,-15.015,-25.452
1.194,2.253,0.896,-37.659,-4.883,-37.964
1.150,2.161,0.849,-53.406,2.869,-47.180
1.107,2.142,0.816,-72.693,7.202,-52.551
1.021,2.083,0.786,-90.027,11.353,-58.655
0.948,2.026,0.742,-104.553,14.160,-66.223
0.873,1.941,0.710,-114.685,17.944,-77.698
0.823,1.785,0.686,-119.568,21.362,-91.370
0.776,1.624,0.647,-121.094,25.146,-103.149
0.746,1.445,0.619,-120.972,29.236,-113.953
0.727,1.250,0.601,-124.268,31.616,-122.803
0.701,1.039,0.569,-133.118,32.837,-126.892
0.665,0.808,0.521,-142.578,34.546,-127.991
0.664,0.603,0.458,-147.766,36.438,-128.662
0.627,0.428,0.380,-150.635,36.804,-126.831
0.605,0.275,0.312,-152.100,34.546,-122.986
0.571,0.136,0.252,-149.841,32.532,-120.056
0.566,0.028,0.204,-141.968,30.518,-117.981
0.561,-0.043,0.200,-131.409,28.076,-115.662
0.547,-0.092,0.207,-122.009,25.513,-112.244
0.552,-0.143,0.222,-116.882,23.682,-108.765
0.583,-0.193,0.230,-116.760,22.522,-104.309
0.564,-0.224,0.201,-120.544,23.193,-96.863
0.531,-0.279,0.147,-125.305,23.010,-89.783
0.531,-0.372,0.093,-126.831,23.132,-84.656
0.528,-0.425,0.014,-121.948,22.095,-78.979
0.512,-0.440,-0.044,-110.229,18.250,-72.815
0.500,-0.429,-0.057,-95.032,13.123,-67.871
0.501,-0.414,-0.032,-80.566,6.592,-63.965
0.526,-0.399,0.005,-70.313,0.366,-60.059
0.555,-0.371,0.058,-64.575,-5.127,-55.176
0.593,-0.359,0.101,-60.974,-7.812,-50.232
0.639,-0.354,0.105,-55.298,-6.409,-46.936
0.655,-0.355,0.048,-48.645,-3.235,-43.457
0.661,-0.349,-0.014,-41.138,-0.427,-39.368
0.679,-0.361,-0.045,-34.485,0.305,-34.851
0.700,-0.345,-0.070,-31.128,-0.977,-27.832
0.711,-0.307,-0.098,-30.762,-2.808,-18.982
0.699,-0.243,-0.124,-29.846,-5.676,-11.414
0.720,-0.167,-0.124,-26.794,-8.423,-6.042
0.742,-0.101,-0.104,-20.752,-9.094,-3.540
0.760,-0.046,-0.088,-12.573,-8.301,-2.869
0.784,-0.007,-0.083,-5.432,-6.653,-2.869
0.795,0.032,-0.089,-2.930,-5.432,-1.587
0.814,0.067,-0.094,-4.944,-5.310,1.465
0.837,0.104,-0.104,-8.911,-5.981,5.615
0.844,0.156,-0.119,-11.169,-6.897,9.216
0.846,0.202,-0.130,-10.437,-7.629,10.254
0.854,0.227,-0.128,-6.409,-8.301,8.484
0.873,0.230,-0.117,0.305,-8.423,5.310
0.885,0.242,-0.098,7.690,-8.362,2.625
0.896,0.257,-0.080,13.367,-8.850,0.854
0.898,0.274,-0.063,15.015,-9.399,0.427
0.906,0.292,-0.031,13.000,-10.376,0.916
0.932,0.307,0.004,9.033,-10.193,1.831
0.947,0.316,0.022,5.127,-7.690,3.174
0.952,0.325,0.012,2.686,-4.211,3.479
0.935,0.337,-0.017,2.625,-1.282,3.174
0.930,0.364,-0.045,3.174,0.549,2.563
0.943,0.380,-0.060,3.662,1.221,1.343
0.946,0.381,-0.072,3.601,1.221,0.793
0.945,0.370,-0.078,3.601,1.465,0.183
0.935,0.360,-0.090,4.639,1.160,-0.183
0.934,0.346,-0.109,6.348,1.221,-0.732
0.928,0.354,-0.110,8.240,0.732,-0.793
0.946,0.377,-0.086,7.935,-0.671,-0.427
0.937,0.380,-0.068,3.845,-0.610,1.221
0.927,0.393,-0.070,-0.977,0.916,2.258
0.917,0.400,-0.084,-2.502,2.014,2.319
0.914,0.400,-0.095,-2.930,2.014,1.770
0.916,0.389,-0.096,-2.563,1.526,0.793
0.918,0.372,-0.096,-1.953,0.977,0.000
0.906,0.348,-0.097,-2.136,0.488,-0.122
0.901,0.318,-0.099,-2.625,0.000,0.000
0.911,0.288,-0.111,-1.831,-0.488,0.549
0.927,0.287,-0.126,0.244,-0.854,1.587
0.926,0.295,-0.123,2.563,-2.075,3.174
0.922,0.328,-0.091,3.601,-3.723,4.517
0.921,0.353,-0.065,2.075,-3.906,5.310
0.929,0.362,-0.058,-0.305,-2.502,5.737
0.926,0.371,-0.061,-1.465,-1.221,6.042
0.922,0.389,-0.065,-1.160,-0.732,5.981
0.913,0.407,-0.070,-0.488,-0.549,5.371
0.901,0.410,-0.073,-0.671,-0.549,4.395
0.895,0.395,-0.075,-1.526,-0.427,3.052
0.908,0.371,-0.084,-1.892,0.061,1.770
0.922,0.348,-0.104,-1.099,0.366,1.038
0.929,0.339,-0.117,0.671,0.366,0.732
0.923,0.349,-0.113,2.869,-0.671,1.038
0.921,0.366,-0.089,3.784,-1.709,1.343
0.918,0.381,-0.074,3.418,-1.587,1.160
0.916,0.390,-0.069,3.235,-0.854,0.671
0.917,0.389,-0.082,2.808,-0.244,-0.061
0.908,0.389,-0.081,2.625,-0.427,-0.671
0.912,0.379,-0.089,0.916,-0.793,-1.282
0.911,0.369,-0.086,-3.052,-1.526,-0.610
0.913,0.354,-0.089,-6.714,-1.892,0.427
0.918,0.339,-0.094,-7.568,-1.221,0.793
0.915,0.338,-0.108,-5.493,-0.671,0.549
0.906,0.344,-0.114,-2.563,-0.916,0.305
0.910,0.348,-0.103,-0.244,-2.136,0.305
0.912,0.357,-0.083,0.427,-2.808,0.427
0.913,0.354,-0.075,0.366,-2.258,0.183
0.922,0.337,-0.083,0.122,-0.488,-0.427
0.928,0.317,-0.103,0.732,0.549,-0.793
0.927,0.308,-0.120,2.258,0.671,-0.427
0.921,0.315,-0.124,3.906,-0.305,0.183
0.917,0.336,-0.111,3.540,-2.075,0.916
0.914,0.350,-0.092,0.977,-3.601,2.258
0.913,0.353,-0.086,-1.282,-4.028,3.174

1.215,1.188,0.572,44.678,-83.801,31.433
1.283,1.255,0.642,34.241,-82.214,32.715
1.326,1.350,0.719,29.907,-77.454,31.494
1.339,1.443,0.774,31.067,-69.519,25.635
1.359,1.570,0.797,32.043,-61.829,17.944
1.370,1.631,0.810,30.396,-53.467,8.484
1.422,1.669,0.842,25.085,-45.837,-0.671
1.445,1.693,0.875,14.954,-38.696,-5.249
1.441,1.707,0.883,2.075,-31.189,-7.751
1.405,1.700,0.883,-11.108,-22.278,-9.521
1.343,1.729,0.876,-23.865,-15.442,-10.742
1.317,1.796,0.906,-34.058,-5.310,-15.198
1.208,1.814,0.882,-44.067,0.061,-18.555
1.148,1.798,0.865,-52.124,7.263,-26.245
1.095,1.758,0.818,-56.702,15.076,-35.034
1.044,1.714,0.798,-58.655,23.254,-45.105
1.033,1.677,0.802,-62.134,29.907,-53.711
0.998,1.675,0.784,-74.463,32.471,-56.702
0.961,1.637,0.778,-92.651,34.668,-57.678
0.903,1.570,0.744,-112.366,38.147,-59.448
0.823,1.444,0.677,-126.038,42.725,-64.453
0.786,1.300,0.597,-129.272,48.523,-73.730
0.751,1.142,0.493,-123.108,55.054,-84.412
0.682,1.026,0.388,-109.558,60.303,-95.215
0.649,0.895,0.357,-95.947,61.951,-106.323
0.667,0.680,0.334,-94.116,60.303,-112.000
0.680,0.511,0.314,-110.168,56.946,-107.300
0.665,0.368,0.298,-133.484,49.500,-95.886
0.653,0.266,0.298,-150.818,43.274,-85.571
0.632,0.175,0.283,-156.433,41.748,-79.956
0.588,0.120,0.249,-154.053,42.419,-77.271
0.568,0.041,0.200,-147.644,44.556,-77.576
0.554,-0.024,0.141,-140.259,44.067,-78.735
0.552,-0.115,0.075,-130.798,40.833,-80.139
0.546,-0.183,0.018,-119.934,36.499,-80.261
0.511,-0.227,-0.042,-111.877,30.029,-77.637
0.494,-0.285,-0.084,-108.948,20.691,-72.754
0.511,-0.337,-0.037,-111.511,10.315,-65.002
0.535,-0.337,0.037,-113.220,4.761,-56.396
0.535,-0.332,0.057,-103.760,5.310,-52.856
0.509,-0.324,0.015,-86.853,10.132,-53.650
0.508,-0.348,-0.049,-69.275,14.526,-55.908
0.500,-0.335,-0.092,-55.359,14.099,-55.237
0.503,-0.305,-0.107,-47.913,8.606,-51.392
0.520,-0.286,-0.104,-46.021,0.061,-45.166
0.568,-0.265,-0.074,-48.584,-5.737,-38.208
0.604,-0.264,-0.045,-48.523,-9.216,-32.166
0.626,-0.243,-0.033,-44.861,-10.071,-27.100
0.643,-0.229,-0.039,-38.086,-7.935,-22.705
0.640,-0.158,-0.045,-30.151,-5.615,-18.372
0.639,-0.109,-0.073,-20.203,-4.028,-16.602
0.662,-0.066,-0.100,-11.719,-3.296,-16.602
0.695,-0.057,-0.118,-6.897,-3.418,-15.686
0.719,-0.047,-0.127,-5.615,-4.761,-12.268
0.738,-0.014,-0.130,-8.728,-6.653,-6.165
0.741,0.022,-0.122,-12.573,-9.277,-0.061
0.754,0.077,-0.111,-14.160,-11.780,5.005
0.781,0.133,-0.098,-11.841,-12.329,7.080
0.795,0.193,-0.094,-7.507,-11.841,7.202
0.832,0.234,-0.088,-2.747,-10.132,5.554
0.861,0.270,-0.076,-0.977,-8.728,4.761
0.866,0.278,-0.084,-1.099,-8.545,4.883
0.877,0.311,-0.084,-2.563,-7.324,5.310
0.870,0.322,-0.091,-3.540,-7.080,5.676
0.868,0.328,-0.095,-3.113,-6.775,4.944
0.883,0.339,-0.094,-1.099,-6.226,3.418
0.904,0.351,-0.087,2.136,-6.226,1.648
0.921,0.355,-0.074,5.310,-6.165,-0.244
0.940,0.354,-0.057,7.446,-5.432,-1.831
0.946,0.375,-0.049,8.240,-4.578,-2.380
0.940,0.374,-0.049,7.446,-3.967,-2.380
0.946,0.368,-0.051,3.967,-2.380,-1.953
0.947,0.344,-0.067,0.488,-1.709,-0.793
0.952,0.322,-0.090,-0.610,-1.343,0.183
0.955,0.307,-0.115,0.427,-0.488,0.916
0.944,0.311,-0.127,3.174,-0.977,1.953
0.928,0.336,-0.120,5.188,-2.869,3.174
0.921,0.362,-0.094,5.676,-4.456,4.028
0.919,0.381,-0.068,5.066,-5.676,4.944
0.922,0.415,-0.039,3.540,-5.920,5.493
0.937,0.410,-0.027,2.136,-4.761,4.883
0.951,0.390,-0.035,0.671,-2.686,4.272
0.949,0.367,-0.055,-1.343,-0.549,5.005
0.939,0.359,-0.081,-2.930,0.549,6.470
0.924,0.354,-0.089,-2.747,0.671,7.568
0.908,0.363,-0.093,-1.465,0.610,8.057
0.897,0.375,-0.097,0.610,0.000,7.690
0.897,0.381,-0.094,2.075,-1.038,6.897
0.914,0.380,-0.090,2.258,-2.136,6.287
0.919,0.383,-0.085,1.526,-2.136,6.531
0.912,0.393,-0.076,2.319,-2.380,6.287
0.908,0.410,-0.062,4.089,-1.892,5.127
0.907,0.424,-0.048,5.859,-0.916,3.662
0.910,0.432,-0.042,5.127,0.061,2.441
0.910,0.429,-0.053,2.686,1.038,2.075
0.923,0.399,-0.075,0.793,2.380,1.526
0.925,0.375,-0.102,0.000,3.479,1.404
0.923,0.368,-0.134,0.305,3.967,2.075
0.901,0.370,-0.128,2.075,2.686,2.502
0.897,0.387,-0.130,3.601,0.488,2.991
0.881,0.406,-0.104,3.601,-1.038,3.357
0.887,0.422,-0.078,3.967,-2.625,2.747
0.898,0.404,-0.058,2.747,-2.258,2.014
0.904,0.381,-0.062,0.793,-0.610,1.709
0.905,0.371,-0.075,0.000,0.854,2.258
0.897,0.373,-0.085,-0.061,1.770,2.502
0.888,0.384,-0.087,0.916,1.587,2.380
0.885,0.401,-0.087,2.136,1.404,2.014
0.890,0.411,-0.090,2.808,1.221,1.465
0.894,0.408,-0.096,3.174,1.343,0.610
0.905,0.405,-0.104,3.662,2.075,-0.061
0.899,0.397,-0.113,3.601,2.502,0.000
0.898,0.400,-0.117,3.235,1.709,0.549
0.892,0.408,-0.114,2.075,0.854,1.343
0.886,0.421,-0.107,0.244,0.122,1.953
0.885,0.428,-0.097,-0.732,-0.610,2.075
0.890,0.428,-0.090,-1.160,-0.732,1.709
0.893,0.421,-0.091,-0.977,0.000,0.732
0.891,0.411,-0.099,0.122,0.488,-0.183

1.005,1.543,0.606,70.007,-76.416,62.805
1.058,1.747,0.681,62.500,-71.411,57.434
1.101,1.962,0.764,54.504,-65.247,48.950
1.142,2.178,0.840,44.189,-59.021,38.269
1.183,2.307,0.884,33.142,-53.162,25.024
1.263,2.390,0.923,21.362,-46.265,8.850
1.303,2.399,0.952,8.789,-36.438,-6.409
1.306,2.365,0.954,-3.052,-25.574,-20.813
1.306,2.307,0.941,-13.489,-15.564,-34.973
1.278,2.182,0.918,-23.682,-6.958,-48.035
1.265,2.078,0.898,-34.241,-0.488,-59.082
1.237,1.957,0.885,-44.006,5.920,-67.017
1.189,1.839,0.854,-56.458,11.658,-72.815
1.143,1.745,0.849,-68.848,15.503,-76.172
1.069,1.693,0.845,-80.261,18.860,-78.918
1.005,1.638,0.866,-89.111,25.024,-85.083
0.945,1.571,0.872,-95.581,32.104,-92.468
0.872,1.477,0.849,-99.731,40.222,-100.281
0.813,1.326,0.807,-102.539,49.316,-109.253
0.759,1.152,0.730,-106.079,58.838,-116.089
0.699,0.985,0.639,-108.521,64.636,-119.995
0.654,0.897,0.576,-109.070,68.054,-121.521
0.582,0.879,0.528,-111.816,67.749,-121.399
0.515,0.809,0.441,-121.155,65.491,-121.521
0.520,0.670,0.390,-130.920,67.993,-124.573
0.442,0.498,0.292,-133.850,61.340,-125.183
0.478,0.306,0.267,-129.028,61.707,-127.991
0.471,0.172,0.218,-126.587,62.439,-126.343
0.427,0.081,0.163,-126.892,60.425,-120.483
0.407,-0.006,0.108,-125.610,57.251,-116.333
0.381,-0.115,0.054,-121.643,51.758,-113.525
0.388,-0.259,0.029,-114.319,46.997,-111.206
0.417,-0.387,0.002,-108.032,42.603,-106.079
0.429,-0.462,-0.007,-106.995,38.696,-95.886
0.416,-0.477,-0.033,-107.483,35.095,-83.740
0.428,-0.480,-0.062,-104.248,32.898,-74.219
0.415,-0.458,-0.108,-96.985,29.968,-66.101
0.417,-0.439,-0.148,-86.182,24.841,-60.486
0.439,-0.416,-0.168,-72.510,18.677,-56.519
0.457,-0.387,-0.162,-57.068,10.742,-52.979
0.495,-0.362,-0.117,-44.861,3.418,-49.500
0.541,-0.360,-0.093,-39.734,-2.747,-44.312
0.580,-0.332,-0.064,-41.260,-6.226,-35.828
0.601,-0.314,-0.053,-41.870,-7.812,-27.161
0.620,-0.274,-0.057,-38.269,-7.690,-20.081
0.622,-0.222,-0.073,-31.128,-6.348,-14.954
0.628,-0.167,-0.092,-22.156,-5.432,-11.658
0.639,-0.120,-0.102,-13.184,-5.859,-9.705
0.657,-0.071,-0.100,-6.165,-7.874,-8.240
0.698,-0.035,-0.081,-4.333,-11.047,-5.981
0.736,-0.024,-0.071,-7.446,-14.343,-1.526
0.759,0.034,-0.043,-13.733,-15.442,5.981
0.772,0.087,-0.019,-16.907,-15.869,12.268
0.775,0.167,-0.022,-15.564,-14.648,15.137
0.774,0.233,-0.028,-9.705,-12.878,14.160
0.792,0.282,-0.036,-3.479,-11.902,10.803
0.834,0.296,-0.035,0.549,-11.597,7.507
0.859,0.316,-0.038,2.258,-11.536,5.920
0.873,0.321,-0.047,2.747,-11.475,5.371
0.886,0.362,-0.050,2.136,-11.475,5.676
0.904,0.381,-0.044,-0.061,-11.902,5.676
0.917,0.399,-0.025,-0.366,-11.902,4.761
0.931,0.407,-0.004,1.465,-10.620,2.380
0.946,0.408,0.001,5.188,-7.690,-1.221
0.946,0.413,0.005,8.118,-5.066,-3.784
0.949,0.403,0.001,8.484,-2.991,-5.798
0.968,0.371,-0.002,6.836,-0.549,-7.385
0.961,0.354,-0.026,4.395,0.854,-6.775
0.953,0.368,-0.048,3.113,1.099,-5.798
0.954,0.336,-0.068,2.930,1.404,-6.165
0.958,0.340,-0.075,3.174,2.441,-6.042
0.959,0.326,-0.082,3.845,2.625,-5.310
0.954,0.317,-0.086,4.211,2.075,-4.639
0.946,0.311,-0.077,4.395,1.526,-3.601
0.931,0.310,-0.058,4.578,1.282,-2.808
0.904,0.297,-0.066,4.028,2.197,-2.075
0.910,0.291,-0.072,2.563,1.526,-0.732
0.907,0.279,-0.085,1.038,1.221,0.916
0.916,0.303,-0.089,0.488,0.732,2.930
0.917,0.313,-0.086,-1.038,0.305,4.944
0.922,0.319,-0.087,-2.747,0.671,6.836
0.910,0.330,-0.095,-2.380,0.732,7.812
0.897,0.345,-0.098,-0.305,0.061,8.545
0.883,0.381,-0.096,2.563,-0.427,7.935
0.880,0.398,-0.092,2.869,-1.953,6.958
0.896,0.392,-0.082,0.488,-2.625,6.592
0.907,0.375,-0.085,-0.244,-2.502,5.920
0.903,0.362,-0.098,2.136,-2.319,4.944
0.902,0.361,-0.097,6.042,-2.625,4.211
0.906,0.369,-0.072,8.606,-3.601,3.723
0.905,0.396,-0.050,8.972,-3.479,3.967
0.912,0.420,-0.042,8.423,-2.686,3.601
0.922,0.416,-0.035,7.385,-1.587,2.747
0.919,0.414,-0.035,6.958,-0.488,1.953
0.923,0.400,-0.036,5.615,-0.244,1.526
0.924,0.396,-0.039,2.258,-0.549,2.441
0.918,0.387,-0.041,-0.977,-0.854,3.723
0.917,0.400,-0.046,-2.075,-0.977,4.089
0.921,0.402,-0.049,-1.160,-0.610,3.601
0.923,0.392,-0.050,1.587,-0.427,2.380
0.922,0.390,-0.051,4.944,0.000,1.099
0.917,0.389,-0.050,7.690,0.305,0.000
0.907,0.391,-0.049,8.057,0.427,-0.427
0.903,0.388,-0.043,6.348,0.732,-0.183
0.908,0.390,-0.043,3.174,0.671,1.038
0.906,0.394,-0.047,0.000,0.488,2.625
0.904,0.393,-0.052,-2.319,0.366,3.479
0.902,0.389,-0.059,-3.357,0.427,3.723
0.901,0.385,-0.069,-2.808,0.671,3.601
0.901,0.380,-0.077,-1.282,0.549,3.052
0.903,0.379,-0.091,1.038,0.488,2.869
0.906,0.385,-0.095,3.052,0.000,2.747
0.909,0.395,-0.090,4.028,-1.038,2.625
0.918,0.400,-0.077,3.174,-1.526,2.563
0.922,0.406,-0.064,1.587,-1.587,3.113
0.917,0.421,-0.058,-0.122,-1.465,3.662
0.912,0.433,-0.056,-1.526,-1.099,3.967
0.910,0.428,-0.058,-2.197,-0.854,3.723
0.908,0.413,-0.066,-2.014,-0.549,2.747

0.893,1.332,0.604,48.767,-75.439,74.341
0.919,1.494,0.682,49.316,-74.463,69.092
0.964,1.678,0.766,51.086,-73.730,60.852
1.043,1.867,0.804,51.270,-68.542,48.950
1.089,2.026,0.822,50.842,-60.974,34.668
1.151,2.142,0.854,48.706,-55.237,17.395
1.201,2.182,0.908,39.978,-48.706,1.282
1.283,2.195,0.957,24.109,-41.504,-9.888
1.215,2.175,1.000,5.615,-35.522,-19.226
1.199,2.138,1.015,-9.338,-25.513,-29.480
1.145,2.091,1.001,-23.010,-16.968,-39.001
1.119,2.020,0.975,-34.546,-7.629,-50.781
1.070,1.896,0.928,-42.053,0.916,-62.805
1.090,1.800,0.906,-47.119,10.559,-73.792
1.005,1.766,0.894,-54.321,13.672,-81.421
0.919,1.756,0.914,-69.946,16.846,-83.862
0.906,1.759,0.933,-92.529,24.780,-87.341
0.852,1.742,0.929,-114.563,26.611,-90.393
0.797,1.669,0.910,-130.859,28.442,-96.558
0.763,1.526,0.860,-137.634,37.720,-108.215
0.686,1.339,0.756,-137.268,48.340,-121.338
0.625,1.168,0.681,-132.385,57.434,-132.874
0.557,0.996,0.655,-132.141,62.561,-141.174
0.519,0.758,0.620,-139.587,63.232,-144.836
0.493,0.535,0.568,-152.344,64.636,-143.433
0.473,0.330,0.477,-162.231,64.697,-140.137
0.458,0.143,0.367,-163.635,64.514,-136.780
0.429,-0.001,0.264,-156.433,63.538,-132.629
0.417,-0.130,0.181,-145.325,60.425,-128.723
0.404,-0.228,0.110,-134.155,55.725,-124.573
0.381,-0.300,0.065,-125.549,47.729,-118.530
0.401,-0.382,0.067,-118.591,36.865,-112.061
0.458,-0.414,0.082,-111.877,26.794,-104.858
0.469,-0.434,0.119,-104.126,19.714,-96.069
0.522,-0.443,0.184,-95.398,17.334,-87.097
0.530,-0.449,0.216,-87.708,17.822,-78.430
0.542,-0.417,0.210,-80.139,20.874,-70.374
0.550,-0.378,0.174,-71.228,24.902,-64.148
0.550,-0.332,0.117,-63.354,25.940,-58.167
0.558,-0.282,0.070,-57.190,24.414,-52.307
0.569,-0.272,0.012,-49.133,19.958,-47.485
0.603,-0.232,-0.016,-40.833,15.625,-42.847
0.600,-0.201,-0.042,-35.217,9.583,-36.560
0.605,-0.172,-0.019,-32.898,2.991,-29.358
0.630,-0.128,0.034,-32.532,-1.709,-22.217
0.661,-0.083,0.083,-30.701,-3.967,-16.785
0.689,-0.038,0.099,-26.062,-3.235,-13.611
0.710,0.008,0.093,-21.118,-0.366,-11.108
0.716,0.035,0.073,-17.517,1.404,-8.789
0.748,0.058,0.062,-15.991,2.197,-6.104
0.758,0.072,0.026,-13.794,2.747,-3.113
0.746,0.134,-0.003,-11.963,2.930,0.061
0.751,0.178,-0.029,-9.766,2.441,2.136
0.751,0.210,-0.052,-8.179,1.343,3.662
0.752,0.249,-0.060,-6.836,-0.244,4.456
0.777,0.267,-0.052,-5.554,-2.686,4.089
0.793,0.270,-0.041,-3.540,-4.150,3.723
0.803,0.292,-0.035,-1.160,-5.188,3.784
0.822,0.327,-0.009,0.427,-5.676,4.028
0.843,0.354,0.013,1.099,-5.493,4.211
0.864,0.372,0.020,0.488,-4.089,3.906
0.873,0.393,0.005,0.610,-2.258,3.479
0.880,0.404,-0.012,0.610,-0.916,2.808
0.883,0.409,-0.024,0.610,-0.122,2.136
0.877,0.392,-0.040,2.075,0.366,1.465
0.865,0.418,-0.047,2.747,0.427,1.099
0.872,0.422,-0.044,3.174,-0.366,0.366
0.890,0.430,-0.029,3.235,-1.648,-0.305
0.908,0.423,-0.018,2.930,-1.648,-0.549
0.917,0.425,-0.021,2.380,-0.916,-0.244
0.919,0.410,-0.028,2.075,0.122,-0.122
0.904,0.377,-0.043,2.502,0.793,-0.061
0.895,0.372,-0.050,2.747,1.221,0.793
0.880,0.372,-0.052,2.808,0.305,1.770
0.879,0.393,-0.052,2.380,-0.793,3.052
0.866,0.422,-0.033,3.174,-2.563,3.540
0.865,0.460,-0.021,3.906,-4.150,3.357
0.871,0.462,-0.004,3.296,-4.272,2.441
0.882,0.444,-0.002,2.319,-3.723,1.282
0.883,0.413,-0.012,1.526,-2.869,1.099
0.877,0.407,-0.022,1.587,-2.441,1.343
0.864,0.415,-0.021,2.014,-2.563,1.526
0.858,0.434,-0.017,2.380,-2.930,1.404
0.865,0.445,-0.019,3.357,-2.747,0.305
0.877,0.442,-0.021,5.005,-2.380,-1.099
0.887,0.422,-0.028,5.493,-1.953,-1.648
0.892,0.411,-0.036,3.967,-1.953,-1.038
0.892,0.423,-0.035,1.221,-2.869,0.916
0.885,0.438,-0.029,-0.549,-3.967,2.563
0.880,0.456,-0.012,-2.380,-4.211,3.418
0.888,0.444,0.001,-1.587,-4.211,2.502
0.896,0.450,-0.000,1.221,-2.930,1.038
0.895,0.453,-0.013,4.211,-1.648,-0.427
0.898,0.453,-0.019,4.883,-1.160,-1.221
0.899,0.452,-0.014,3.662,-1.282,-1.099
0.896,0.456,-0.010,2.014,-1.953,-0.488
0.895,0.450,-0.007,0.183,-2.319,0.061
0.892,0.449,-0.008,-0.671,-2.380,0.183
0.891,0.442,-0.007,-0.183,-2.625,-0.305
0.895,0.426,-0.010,1.038,-2.136,-0.793
0.896,0.417,-0.018,2.625,-1.587,-1.160
0.887,0.419,-0.022,4.395,-1.648,-1.282
0.885,0.427,-0.020,4.700,-2.441,-0.854
0.888,0.429,-0.006,4.333,-3.113,-0.549
0.883,0.445,0.004,4.150,-3.418,-0.183
0.884,0.441,0.010,4.456,-3.113,-0.671
0.885,0.436,0.007,5.127,-2.319,-1.526
0.885,0.438,0.005,6.348,-2.197,-1.953
0.888,0.438,0.014,5.554,-2.380,-2.014
0.892,0.445,0.028,2.747,-2.808,-1.099
0.896,0.452,0.033,-0.122,-2.747,-0.305
0.895,0.456,0.032,-2.014,-2.197,0.244
0.896,0.451,0.026,-2.258,-1.465,-0.061
0.901,0.436,0.017,-1.099,-0.610,-0.732
0.900,0.432,0.006,0.610,0.305,-1.526
0.897,0.430,-0.000,1.831,0.610,-1.831
0.899,0.421,-0.003,0.977,0.732,-1.648
0.897,0.410,-0.006,0.183,0.610,-1.282
0.893,0.408,-0.009,0.427,0.488,-0.610

0.981,1.419,0.573,57.007,-75.134,49.133
1.061,1.660,0.704,66.162,-76.355,41.931
1.142,1.907,0.855,64.392,-76.843,32.837
1.261,2.122,0.965,52.734,-72.388,20.691
1.361,2.218,1.041,34.424,-64.453,8.667
1.465,2.297,1.095,14.832,-52.795,-3.235
1.433,2.319,1.174,-0.610,-42.114,-15.503
1.387,2.349,1.133,-13.428,-37.720,-27.161
1.433,2.322,1.162,-23.315,-20.630,-43.640
1.371,2.184,1.130,-34.302,-8.240,-57.739
1.378,2.050,1.093,-43.335,3.296,-70.496
1.353,1.885,1.052,-50.232,15.869,-80.078
1.269,1.728,0.998,-60.425,22.644,-84.167
1.202,1.620,0.963,-71.594,31.738,-87.280
1.100,1.563,0.910,-82.275,37.903,-90.271
1.026,1.481,0.873,-93.384,39.917,-93.994
0.971,1.374,0.864,-102.783,42.114,-98.450
0.926,1.263,0.853,-107.544,46.997,-104.309
0.879,1.140,0.839,-106.995,54.993,-111.755
0.823,1.040,0.801,-105.957,62.439,-118.835
0.769,0.925,0.741,-108.154,69.641,-124.146
0.709,0.810,0.661,-110.107,77.332,-127.747
0.668,0.680,0.586,-111.206,83.923,-129.639
0.659,0.503,0.511,-115.112,88.013,-129.822
0.638,0.340,0.416,-122.375,89.722,-125.977
0.610,0.206,0.310,-129.272,88.684,-119.202
0.585,0.164,0.186,-134.033,85.510,-111.572
0.545,0.145,0.073,-135.986,78.735,-104.492
0.496,0.113,0.035,-136.292,69.824,-98.633
0.488,0.076,0.051,-131.775,62.988,-96.191
0.484,0.013,0.073,-122.498,58.899,-96.558
0.484,-0.066,0.050,-114.319,56.152,-96.680
0.486,-0.187,0.016,-106.873,54.993,-95.337
0.491,-0.264,-0.056,-99.060,53.589,-91.492
0.473,-0.297,-0.106,-91.492,50.049,-85.327
0.471,-0.309,-0.123,-86.365,43.457,-77.820
0.435,-0.366,-0.154,-84.961,35.950,-69.885
0.461,-0.378,-0.146,-85.999,25.452,-60.425
0.488,-0.364,-0.080,-85.205,15.564,-50.659
0.501,-0.335,-0.020,-79.163,11.047,-43.823
0.502,-0.296,-0.033,-67.993,11.169,-40.894
0.531,-0.293,-0.088,-55.237,14.160,-40.344
0.523,-0.266,-0.152,-44.373,15.747,-38.330
0.526,-0.245,-0.184,-36.682,13.550,-34.790
0.544,-0.231,-0.174,-33.691,7.629,-29.724
0.546,-0.211,-0.176,-35.095,-0.549,-22.705
0.561,-0.175,-0.150,-39.856,-8.118,-15.015
0.590,-0.163,-0.100,-41.443,-14.526,-8.789
0.620,-0.137,-0.050,-37.170,-16.785,-5.371
0.664,-0.107,-0.011,-27.344,-15.259,-4.761
0.699,-0.073,0.005,-18.555,-12.329,-4.089
0.713,-0.036,0.001,-14.221,-9.155,-2.136
0.723,-0.002,-0.011,-11.963,-7.019,0.488
0.749,0.028,-0.038,-13.245,-5.798,3.723
0.761,0.067,-0.073,-17.273,-5.920,8.789
0.790,0.100,-0.104,-20.142,-7.202,12.451
0.801,0.118,-0.132,-18.982,-9.094,14.832
0.813,0.170,-0.139,-14.709,-10.925,15.686
0.822,0.220,-0.121,-9.399,-12.024,15.381
0.830,0.275,-0.088,-3.906,-12.756,13.611
0.851,0.332,-0.048,-0.671,-11.902,10.986
0.878,0.358,-0.016,1.282,-10.742,7.874
0.921,0.337,-0.008,0.610,-8.301,5.310
0.945,0.315,-0.027,-1.709,-5.249,4.333
0.951,0.308,-0.056,-4.517,-3.540,5.188
0.945,0.286,-0.090,-6.042,-2.686,6.348
0.930,0.328,-0.101,-7.263,-1.953,7.812
0.914,0.360,-0.113,-5.676,-2.563,7.446
0.920,0.378,-0.111,-2.808,-3.967,4.944
0.918,0.401,-0.091,0.366,-4.456,2.075
0.928,0.414,-0.075,4.211,-4.272,-1.770
0.931,0.398,-0.075,6.531,-2.930,-4.944
0.942,0.365,-0.079,7.263,-1.099,-7.568
0.955,0.337,-0.078,6.592,-0.488,-7.935
0.951,0.301,-0.075,5.371,-0.916,-6.653
0.953,0.307,-0.073,3.601,-0.610,-4.639
0.957,0.312,-0.062,1.831,-0.916,-3.052
0.954,0.317,-0.046,1.465,-1.343,-2.380
0.953,0.315,-0.042,2.258,-0.305,-2.319
0.935,0.310,-0.051,3.784,0.732,-2.319
0.928,0.326,-0.060,4.395,1.282,-2.258
0.923,0.333,-0.071,3.906,1.282,-1.953
0.927,0.330,-0.088,2.686,1.343,-1.648
0.939,0.331,-0.108,2.686,1.221,-1.465
0.938,0.344,-0.113,4.272,0.427,-1.465
0.942,0.349,-0.095,6.226,-0.122,-1.953
0.946,0.344,-0.075,5.920,0.000,-2.075
0.946,0.337,-0.065,4.578,0.732,-1.892
0.933,0.320,-0.068,4.211,1.099,-1.404
0.919,0.328,-0.084,4.211,1.892,-0.671
0.909,0.325,-0.094,3.906,1.648,0.244
0.913,0.329,-0.089,2.625,0.427,1.099
0.929,0.335,-0.081,-0.244,0.305,2.075
0.933,0.331,-0.083,-2.075,0.610,2.869
0.934,0.335,-0.089,-1.892,0.854,3.235
0.924,0.343,-0.097,0.061,1.099,3.296
0.908,0.343,-0.104,2.319,0.916,2.869
0.908,0.356,-0.091,4.028,0.122,2.075
0.907,0.359,-0.076,4.578,-0.061,1.526
0.912,0.343,-0.077,4.517,0.793,0.854
0.913,0.325,-0.095,4.639,1.648,0.488
0.912,0.313,-0.107,5.188,1.465,1.221
0.910,0.313,-0.109,3.845,0.549,3.174
0.898,0.316,-0.101,0.732,-1.221,5.310
0.891,0.348,-0.091,-2.502,-2.380,7.324
0.889,0.369,-0.083,-4.944,-2.197,7.812
0.890,0.382,-0.079,-4.395,-2.380,6.897
0.903,0.382,-0.085,-1.465,-1.526,5.127
0.904,0.370,-0.098,1.648,-0.488,3.052
0.914,0.367,-0.113,3.845,0.366,1.953
0.896,0.352,-0.101,5.127,0.366,1.282
0.910,0.342,-0.106,4.272,-0.366,1.282
0.909,0.336,-0.101,3.418,-1.221,2.319
0.913,0.350,-0.098,2.625,-2.380,3.174
0.927,0.348,-0.095,1.892,-2.747,3.723
0.934,0.358,-0.089,1.587,-2.502,4.150
0.928,0.374,-0.078,1.831,-2.258,4.272
0.930,0.384,-0.071,1.038,-1.343,4.211
0.928,0.394,-0.075,-0.122,-0.854,4.089

1.072,1.079,0.612,60.791,-73.547,29.358
1.133,1.175,0.646,56.458,-71.838,26.550
1.164,1.283,0.695,52.917,-68.848,22.827
1.189,1.388,0.712,51.514,-64.758,16.357
1.342,1.490,0.810,50.171,-56.885,8.667
1.460,1.623,0.872,49.133,-57.434,1.160
1.363,1.714,0.877,47.668,-64.026,-2.686
1.384,1.848,1.008,40.405,-50.781,-10.925
1.403,1.903,1.099,27.832,-33.203,-22.034
1.374,1.917,1.153,12.329,-21.606,-31.067
1.331,1.883,1.156,-5.188,-5.005,-39.795
1.325,1.823,1.127,-20.142,12.939,-49.683
1.298,1.693,1.098,-32.532,24.963,-57.129
1.206,1.580,0.982,-42.175,27.222,-60.791
1.115,1.479,0.892,-50.598,34.302,-63.965
1.065,1.430,0.832,-56.763,39.978,-69.031
0.979,1.375,0.769,-62.195,40.100,-72.327
0.925,1.345,0.741,-67.627,40.771,-75.378
0.854,1.347,0.730,-73.547,42.053,-78.857
0.814,1.319,0.739,-80.444,44.006,-84.106
0.784,1.253,0.748,-88.806,50.049,-90.088
0.729,1.180,0.729,-98.206,57.678,-95.642
0.671,1.094,0.684,-106.934,63.904,-101.074
0.626,0.976,0.636,-116.882,68.848,-106.323
0.620,0.828,0.595,-128.662,72.815,-109.436
0.592,0.660,0.532,-138.000,74.158,-109.497
0.564,0.531,0.458,-141.357,73.608,-108.704
0.533,0.453,0.403,-138.184,72.205,-108.398
0.484,0.359,0.338,-131.836,68.542,-109.924
0.479,0.200,0.289,-123.901,65.186,-112.427
0.461,0.074,0.241,-118.042,62.500,-112.915
0.445,-0.019,0.219,-114.868,60.486,-110.168
0.429,-0.145,0.188,-112.610,58.777,-106.323
0.450,-0.272,0.147,-111.023,55.908,-101.379
0.474,-0.323,0.094,-108.093,52.734,-93.689
0.443,-0.368,0.039,-102.722,46.997,-85.327
0.476,-0.397,0.030,-95.642,39.368,-78.796
0.497,-0.407,0.016,-86.914,32.654,-72.388
0.503,-0.444,0.011,-77.271,26.978,-65.613
0.545,-0.404,0.030,-68.359,21.851,-58.228
0.563,-0.358,0.054,-59.998,20.020,-51.086
0.577,-0.314,0.046,-53.589,19.226,-44.189
0.586,-0.261,0.026,-51.819,18.188,-37.048
0.589,-0.225,-0.002,-50.537,15.564,-30.396
0.607,-0.186,-0.013,-44.678,11.658,-25.879
0.615,-0.134,-0.010,-36.560,7.202,-22.400
0.630,-0.101,-0.004,-29.785,2.686,-19.714
0.658,-0.062,0.016,-25.391,-0.549,-16.724
0.689,-0.054,0.047,-21.301,-3.296,-13.367
0.716,0.001,0.080,-17.639,-3.235,-9.888
0.724,0.050,0.092,-15.320,-1.587,-6.714
0.739,0.099,0.089,-14.954,-0.427,-4.456
0.762,0.123,0.074,-17.273,1.038,-2.380
0.777,0.145,0.062,-18.799,1.831,0.183
0.800,0.176,0.044,-18.127,3.296,2.197
0.811,0.197,0.023,-16.968,4.211,4.028
0.813,0.216,0.001,-16.541,4.211,5.554
0.822,0.239,-0.012,-14.954,3.052,6.592
0.836,0.270,-0.021,-12.817,2.197,7.141
0.850,0.299,-0.030,-10.437,1.404,6.897
0.860,0.313,-0.044,-7.996,0.671,5.859
0.866,0.318,-0.042,-5.432,0.000,4.944
0.861,0.355,-0.032,-2.930,-0.793,4.028
0.857,0.396,-0.012,-0.488,-1.831,1.892
0.858,0.402,0.015,0.732,-2.319,-0.732
0.872,0.407,0.027,0.122,-1.953,-2.747
0.890,0.374,0.024,-1.770,-0.732,-3.906
0.902,0.339,0.014,-2.808,0.488,-4.761
0.902,0.332,0.004,-2.136,1.465,-4.944
0.901,0.341,0.001,-0.977,2.075,-4.761
0.906,0.340,0.003,-0.732,2.319,-4.761
0.915,0.329,0.010,0.366,2.869,-4.822
0.902,0.347,0.004,2.686,2.991,-4.578
0.907,0.361,0.007,3.662,3.052,-5.249
0.914,0.349,0.012,1.282,3.723,-5.493
0.915,0.323,-0.001,-0.488,4.822,-5.005
0.901,0.297,-0.038,-0.122,6.042,-4.456
0.897,0.275,-0.060,0.244,6.470,-3.601
0.908,0.248,-0.069,0.244,5.249,-2.380
0.908,0.251,-0.069,-2.136,3.113,1.221
0.906,0.266,-0.064,-4.578,1.099,5.432
0.895,0.296,-0.060,-5.066,-0.122,8.423
0.879,0.340,-0.058,-3.723,-1.038,9.766
0.873,0.372,-0.047,-1.465,-2.014,9.460
0.872,0.398,-0.043,1.038,-2.014,8.179
0.877,0.408,-0.037,3.113,-1.709,6.042
0.887,0.399,-0.044,4.272,-1.099,4.333
0.899,0.382,-0.053,4.761,-0.610,3.052
0.895,0.380,-0.055,5.249,-1.221,2.991
0.888,0.391,-0.044,4.333,-2.747,3.845
0.889,0.399,-0.023,1.282,-4.150,4.700
0.890,0.386,-0.010,-1.465,-4.211,4.944
0.898,0.377,-0.017,-0.977,-3.418,4.089
0.898,0.371,-0.033,1.282,-2.441,3.113
0.899,0.369,-0.033,3.357,-2.502,2.747
0.892,0.387,-0.006,2.625,-3.540,3.601
0.890,0.377,-0.005,0.305,-3.174,4.456
0.909,0.409,0.018,-2.014,-3.357,4.944
0.906,0.397,0.002,-3.052,-1.892,4.395
0.910,0.379,0.000,-3.174,-1.099,4.089
0.911,0.396,-0.015,-1.648,-2.136,3.479
0.897,0.390,-0.021,0.732,-2.441,2.686
0.896,0.395,-0.019,2.075,-3.174,1.526
0.895,0.375,-0.009,2.930,-3.174,0.610
0.899,0.376,-0.005,4.211,-2.563,0.061
0.908,0.395,0.007,5.554,-2.319,-0.061
0.914,0.414,0.021,5.188,-2.808,0.732
0.910,0.425,0.023,3.113,-2.625,1.587
0.909,0.432,0.014,1.831,-1.892,1.099
0.912,0.431,0.008,2.380,-1.099,-0.427
0.921,0.415,0.004,2.747,0.061,-2.136
0.925,0.387,-0.010,2.136,1.038,-2.625
0.919,0.369,-0.028,0.427,1.160,-1.831
0.910,0.359,-0.040,-0.549,0.549,-0.671
0.905,0.357,-0.049,-0.244,-0.244,0.122
0.906,0.363,-0.052,1.648,-1.221,0.488
0.898,0.398,-0.040,3.357,-2.747,0.488
0.908,0.425,-0.006,3.113,-3.662,0.305
0.926,0.433,0.016,0.977,-3.113,-0.061

0.954,1.118,0.736,41.321,-85.815,26.733
1.056,1.195,0.751,39.673,-82.092,19.958
1.202,1.246,0.732,38.635,-73.486,10.681
1.255,1.273,0.760,39.490,-72.815,1.404
1.309,1.302,0.813,42.236,-79.224,-2.869
1.407,1.375,0.929,44.556,-68.787,-10.315
1.516,1.405,1.042,44.739,-60.791,-16.724
1.535,1.451,1.109,38.574,-57.373,-21.240
1.618,1.483,1.191,27.893,-44.800,-25.452
1.592,1.484,1.240,11.475,-35.400,-25.085
1.593,1.520,1.302,-6.714,-25.513,-24.658
1.573,1.522,1.342,-20.142,-11.108,-27.161
1.515,1.510,1.307,-28.931,5.127,-31.311
1.440,1.486,1.244,-34.851,19.165,-35.889
1.349,1.448,1.176,-41.138,31.311,-40.588
1.263,1.405,1.121,-48.279,41.931,-45.166
1.175,1.357,1.070,-56.641,49.805,-48.401
1.088,1.343,1.005,-64.392,56.519,-51.086
1.002,1.341,0.951,-69.885,63.293,-55.603
0.917,1.347,0.900,-76.782,68.665,-61.646
0.844,1.315,0.864,-86.914,74.219,-67.261
0.773,1.241,0.801,-99.731,78.125,-73.853
0.739,1.134,0.726,-108.521,82.886,-81.482
0.653,1.032,0.630,-113.892,89.294,-87.891
0.628,0.866,0.538,-115.479,93.933,-95.642
0.586,0.713,0.443,-117.004,96.802,-100.464
0.535,0.596,0.333,-119.324,96.313,-101.196
0.510,0.492,0.248,-122.192,93.933,-100.708
0.478,0.397,0.170,-126.038,88.745,-98.328
0.459,0.297,0.120,-128.906,81.421,-94.971
0.462,0.176,0.082,-129.395,74.463,-92.651
0.455,0.085,0.063,-126.892,69.214,-89.722
0.440,0.031,0.037,-121.338,65.491,-87.036
0.448,-0.016,0.013,-114.807,61.768,-84.900
0.439,-0.087,0.007,-109.558,56.458,-81.787
0.452,-0.152,0.007,-106.445,52.307,-78.918
0.481,-0.218,0.005,-102.783,46.814,-73.975
0.474,-0.252,0.009,-99.182,39.001,-67.322
0.511,-0.248,0.020,-93.811,30.396,-61.096
0.546,-0.256,0.016,-87.524,25.574,-56.580
0.565,-0.244,-0.000,-80.200,22.461,-51.270
0.574,-0.227,-0.010,-72.571,20.447,-45.654
0.568,-0.195,-0.011,-64.209,19.592,-41.870
0.564,-0.186,-0.020,-56.152,19.104,-39.612
0.576,-0.174,-0.044,-51.086,17.151,-36.560
0.589,-0.166,-0.049,-50.232,14.282,-31.799
0.619,-0.159,-0.069,-48.645,11.169,-26.489
0.633,-0.126,-0.084,-46.814,8.484,-20.447
0.643,-0.115,-0.079,-42.908,4.333,-15.930
0.654,-0.096,-0.080,-39.063,0.977,-11.658
0.666,-0.047,-0.079,-33.569,-2.197,-8.118
0.682,0.016,-0.072,-27.832,-4.883,-5.615
0.702,0.058,-0.071,-23.621,-5.859,-4.333
0.729,0.085,-0.059,-20.325,-5.859,-3.540
0.759,0.091,-0.041,-17.639,-5.493,-2.808
0.781,0.084,-0.047,-16.724,-5.005,-0.977
0.790,0.108,-0.052,-19.836,-4.211,3.906
0.800,0.129,-0.057,-22.949,-4.089,8.667
0.801,0.172,-0.085,-23.315,-3.967,12.146
0.808,0.223,-0.105,-21.057,-4.578,13.184
0.823,0.247,-0.114,-17.639,-5.066,12.146
0.843,0.258,-0.122,-12.024,-5.615,9.766
0.847,0.282,-0.120,-6.531,-6.531,7.690
0.852,0.291,-0.098,-2.319,-7.324,5.798
0.862,0.299,-0.069,0.732,-7.507,4.272
0.862,0.315,-0.044,2.625,-7.568,3.479
0.875,0.341,-0.027,2.747,-6.897,2.991
0.883,0.359,-0.009,2.441,-5.737,2.502
0.889,0.368,-0.008,2.441,-4.700,1.282
0.897,0.367,-0.003,2.991,-3.296,-0.244
0.906,0.358,-0.016,3.723,-1.526,-1.892
0.912,0.353,-0.036,3.235,-0.671,-2.625
0.908,0.353,-0.049,3.113,-0.732,-2.625
0.908,0.362,-0.057,4.150,-1.038,-2.686
0.913,0.384,-0.043,4.272,-0.732,-2.808
0.921,0.376,-0.027,5.432,-0.916,-3.296
0.920,0.369,-0.023,5.493,0.305,-3.662
0.922,0.340,-0.030,5.432,1.587,-4.150
0.922,0.315,-0.041,4.456,2.502,-3.418
0.919,0.305,-0.050,2.380,2.319,-1.648
0.919,0.307,-0.051,1.282,1.587,0.854
0.916,0.338,-0.044,1.099,0.732,2.930
0.914,0.368,-0.037,1.221,0.061,4.089
0.919,0.383,-0.036,0.916,0.366,4.333
0.921,0.401,-0.037,1.648,0.732,4.272
0.921,0.416,-0.047,2.747,1.465,3.601
0.922,0.414,-0.061,3.357,2.441,2.747
0.921,0.417,-0.068,2.686,2.869,2.625
0.915,0.433,-0.064,2.197,3.296,3.052
0.888,0.445,-0.078,1.831,2.808,2.747
0.896,0.435,-0.071,1.038,2.075,1.770
0.906,0.413,-0.072,0.183,1.770,0.488
0.905,0.400,-0.072,0.305,1.404,0.122
0.905,0.404,-0.072,1.038,0.854,0.183
0.901,0.404,-0.060,0.244,0.305,0.366
0.899,0.407,-0.049,-0.244,0.000,0.366
0.890,0.416,-0.039,0.671,0.000,-0.305
0.891,0.406,-0.031,1.587,0.427,-1.343
0.899,0.388,-0.037,1.526,0.916,-2.075
0.906,0.371,-0.049,0.854,1.221,-1.526
0.908,0.366,-0.056,-0.122,1.465,-0.671
0.904,0.369,-0.060,-0.244,1.221,0.671
0.899,0.372,-0.058,-0.793,0.854,1.770
0.891,0.382,-0.054,-1.343,0.549,2.502
0.888,0.387,-0.061,-1.160,0.671,2.380
0.891,0.391,-0.071,-0.305,1.221,1.587
0.892,0.397,-0.081,0.854,1.099,0.671
0.889,0.400,-0.082,1.648,0.732,0.549
0.886,0.403,-0.080,1.526,0.244,0.671
0.884,0.412,-0.076,1.831,-0.244,0.610
0.881,0.418,-0.077,2.258,-0.427,-0.122
0.888,0.409,-0.082,1.709,-0.305,-0.854
0.896,0.396,-0.090,0.549,-0.366,-1.038
0.900,0.392,-0.097,-0.671,-0.854,-0.610
0.897,0.389,-0.098,-1.221,-1.770,0.122
0.900,0.390,-0.090,-1.343,-2.686,0.488
0.899,0.396,-0.068,-0.854,-3.174,0.549
0.902,0.409,-0.043,-1.160,-2.930,0.000
0.911,0.401,-0.035,-1.587,-2.075,-0.854

1.000,1.209,0.433,54.932,-59.692,47.852
1.078,1.260,0.458,51.270,-59.753,43.762
1.127,1.367,0.487,51.514,-59.082,40.283
1.150,1.520,0.562,54.871,-59.326,35.034
1.183,1.689,0.644,57.373,-57.434,26.001
1.255,1.838,0.767,55.481,-56.213,16.113
1.236,1.929,0.864,48.340,-51.086,6.348
1.322,2.038,0.966,36.926,-42.725,-3.784
1.279,2.048,1.014,23.682,-36.011,-10.437
1.244,2.061,1.044,7.507,-28.320,-18.860
1.209,2.037,1.068,-9.094,-15.869,-28.320
1.164,1.987,1.054,-24.048,-4.700,-38.330
1.136,1.925,1.061,-37.659,6.165,-47.424
1.059,1.842,0.999,-53.040,11.169,-54.932
1.012,1.720,0.950,-67.322,20.691,-60.669
0.989,1.617,0.889,-77.820,28.870,-67.932
0.917,1.504,0.815,-83.801,32.227,-73.181
0.849,1.444,0.744,-86.121,35.767,-78.857
0.792,1.396,0.691,-88.257,39.185,-85.571
0.716,1.392,0.651,-92.224,40.710,-91.553
0.679,1.342,0.633,-97.229,40.405,-98.755
0.654,1.217,0.601,-101.196,41.748,-107.483
0.625,1.089,0.566,-102.112,45.105,-115.295
0.622,0.921,0.576,-100.220,49.255,-123.108
0.591,0.756,0.567,-103.943,51.880,-126.526
0.589,0.564,0.542,-111.938,53.833,-126.343
0.608,0.412,0.519,-121.826,56.152,-122.375
0.601,0.304,0.475,-129.028,55.908,-116.272
0.589,0.196,0.435,-132.385,55.847,-110.840
0.569,0.097,0.378,-131.287,55.969,-107.605
0.570,0.009,0.334,-126.038,55.359,-105.042
0.577,-0.040,0.293,-118.713,53.406,-101.440
0.566,-0.038,0.252,-111.816,51.208,-97.351
0.569,-0.062,0.227,-108.704,48.523,-93.506
0.569,-0.136,0.203,-105.774,47.180,-90.637
0.579,-0.212,0.156,-101.318,46.326,-87.280
0.586,-0.287,0.105,-97.656,45.166,-81.482
0.569,-0.326,0.056,-94.727,41.992,-73.059
0.564,-0.322,0.015,-90.637,36.499,-64.697
0.582,-0.306,0.005,-84.717,31.677,-57.922
0.582,-0.288,-0.004,-76.294,27.039,-52.368
0.609,-0.249,-0.000,-67.749,22.949,-48.340
0.627,-0.248,0.021,-61.279,18.921,-44.189
0.643,-0.229,0.029,-58.533,14.648,-38.757
0.656,-0.212,0.026,-60.425,12.634,-32.104
0.653,-0.214,0.005,-61.462,10.742,-25.818
0.667,-0.203,-0.016,-57.861,10.376,-21.179
0.666,-0.171,-0.064,-49.377,11.047,-18.433
0.672,-0.133,-0.096,-39.612,10.071,-16.541
0.668,-0.103,-0.118,-30.640,8.118,-15.320
0.663,-0.062,-0.126,-20.813,5.493,-14.771
0.687,-0.073,-0.108,-12.756,1.221,-15.076
0.725,-0.061,-0.078,-9.949,-2.441,-12.268
0.761,-0.035,-0.046,-13.855,-4.150,-5.981
0.778,0.011,-0.027,-18.433,-5.432,-0.122
0.790,0.054,-0.015,-22.522,-5.493,5.676
0.809,0.101,-0.006,-23.315,-4.333,9.277
0.814,0.138,-0.026,-20.203,-1.770,10.437
0.818,0.169,-0.054,-15.198,0.000,9.827
0.827,0.183,-0.079,-10.742,1.099,8.728
0.839,0.188,-0.096,-7.202,0.122,8.728
0.839,0.209,-0.098,-5.981,-2.319,10.010
0.856,0.234,-0.079,-5.371,-5.005,10.925
0.869,0.276,-0.064,-4.211,-6.409,11.658
0.878,0.315,-0.047,-3.479,-7.446,11.536
0.899,0.337,-0.025,-3.052,-7.141,10.498
0.910,0.363,-0.005,-1.709,-5.981,9.338
0.904,0.387,0.005,-0.122,-4.150,7.324
0.906,0.399,0.007,1.221,-2.502,4.761
0.917,0.390,0.001,0.488,-0.549,3.174
0.920,0.379,-0.012,-1.160,0.671,2.502
0.932,0.360,-0.034,-2.380,1.648,2.197
0.931,0.347,-0.056,-2.808,2.563,2.502
0.927,0.351,-0.072,-3.113,2.563,2.991
0.923,0.359,-0.074,-2.258,1.770,3.357
0.918,0.381,-0.068,-1.587,0.610,3.479
0.913,0.396,-0.051,-1.038,0.061,3.174
0.904,0.409,-0.037,0.183,0.183,2.380
0.903,0.405,-0.036,1.343,0.732,0.854
0.901,0.392,-0.045,3.052,1.648,-0.732
0.901,0.386,-0.048,4.028,2.075,-1.770
0.901,0.376,-0.047,1.526,1.709,-1.343
0.904,0.365,-0.048,-4.211,1.892,0.610
0.910,0.363,-0.060,-6.836,1.953,1.953
0.908,0.375,-0.074,-6.470,2.075,2.930
0.900,0.385,-0.089,-5.615,1.648,3.235
0.899,0.385,-0.093,-3.906,1.221,2.380
0.892,0.375,-0.098,-1.404,1.099,1.221
0.885,0.357,-0.110,1.282,1.709,-0.061
0.885,0.335,-0.128,4.089,1.343,-0.977
0.896,0.329,-0.140,6.531,0.549,-1.282
0.898,0.359,-0.122,7.996,-1.465,-0.549
0.902,0.385,-0.083,5.371,-3.906,1.221
0.905,0.397,-0.043,-1.221,-4.517,3.296
0.906,0.396,-0.028,-4.639,-3.967,3.906
0.906,0.391,-0.034,-3.296,-2.136,2.686
0.911,0.384,-0.053,0.061,-0.305,0.793
0.916,0.388,-0.063,2.686,0.061,-0.244
0.910,0.394,-0.058,2.197,-0.549,0.000
0.909,0.394,-0.048,-1.343,-0.977,1.038
0.900,0.388,-0.052,-4.211,-0.916,2.014
0.887,0.376,-0.071,-3.845,-0.671,1.892
0.883,0.363,-0.092,-0.854,-0.610,0.549
0.890,0.359,-0.106,2.686,-1.099,-0.610
0.882,0.384,-0.087,5.371,-2.197,-0.977
0.885,0.400,-0.057,5.127,-3.113,-1.404
0.885,0.393,-0.039,2.502,-2.747,-1.526
0.879,0.379,-0.044,1.282,-2.075,-1.709
0.875,0.361,-0.065,2.258,-1.343,-2.197
0.885,0.336,-0.086,4.700,-1.099,-2.991
0.904,0.315,-0.106,7.812,-1.526,-3.479
0.915,0.320,-0.115,11.108,-2.319,-3.174
0.901,0.357,-0.093,12.634,-3.784,-2.197
0.907,0.389,-0.053,9.705,-5.249,-0.671
0.917,0.401,-0.029,2.136,-5.554,1.648
0.919,0.406,-0.028,-4.883,-4.456,3.601
0.911,0.425,-0.032,-6.592,-3.479,3.540
0.914,0.429,-0.041,-5.066,-2.014,1.526
0.925,0.414,-0.054,-3.418,-0.305,-0.916

0.724,1.696,0.717,89.233,-77.759,70.374
0.870,1.822,0.805,81.909,-75.317,60.669
0.947,1.964,0.856,70.068,-68.909,50.354
1.015,2.067,0.898,57.739,-60.608,38.330
1.076,2.209,0.907,44.617,-53.040,27.466
1.078,2.292,0.945,31.738,-47.668,15.869
1.081,2.349,0.983,22.278,-42.419,1.282
1.108,2.332,1.000,16.907,-36.133,-15.137
1.175,2.291,1.090,12.695,-27.161,-31.921
1.140,2.253,1.062,3.601,-24.841,-42.847
1.102,2.154,1.058,-9.216,-12.817,-52.795
1.140,2.076,1.097,-24.414,1.404,-65.186
1.046,1.968,1.074,-41.809,3.662,-69.336
0.988,1.901,1.060,-62.561,8.179,-72.632
0.953,1.824,1.053,-80.627,18.250,-79.285
0.902,1.752,1.010,-92.651,26.245,-86.792
0.836,1.679,0.942,-99.304,32.166,-94.116
0.766,1.599,0.872,-101.379,36.682,-103.271
0.705,1.501,0.810,-100.037,40.039,-113.525
0.638,1.395,0.750,-96.802,43.091,-124.207
0.589,1.258,0.716,-92.957,45.776,-134.460
0.541,1.122,0.716,-93.994,47.546,-142.273
0.520,0.945,0.739,-105.164,49.316,-145.203
0.471,0.794,0.723,-125.305,50.232,-142.456
0.433,0.649,0.701,-143.982,52.551,-139.160
0.415,0.464,0.642,-152.527,57.617,-138.489
0.369,0.329,0.557,-149.109,62.195,-139.343
0.353,0.215,0.480,-138.062,66.223,-141.113
0.344,0.120,0.416,-128.296,68.115,-142.212
0.330,0.020,0.349,-121.521,66.711,-140.686
0.352,-0.109,0.295,-113.892,65.186,-138.489
0.375,-0.215,0.217,-110.229,63.599,-133.789
0.371,-0.316,0.149,-113.770,60.791,-123.535
0.394,-0.358,0.090,-118.591,52.795,-110.291
0.443,-0.371,0.049,-121.582,44.373,-97.656
0.451,-0.382,0.046,-119.202,36.377,-86.060
0.483,-0.338,0.054,-109.619,28.809,-78.003
0.491,-0.296,0.054,-94.299,25.330,-74.646
0.508,-0.310,0.051,-78.857,23.804,-74.219
0.560,-0.364,0.033,-70.801,22.461,-71.594
0.587,-0.354,0.008,-74.036,18.799,-61.584
0.589,-0.406,0.000,-79.895,13.550,-49.316
0.641,-0.365,-0.026,-81.848,9.338,-38.086
0.651,-0.341,-0.060,-75.745,8.118,-30.212
0.660,-0.284,-0.089,-62.866,6.775,-25.513
0.671,-0.225,-0.099,-49.805,5.005,-22.461
0.667,-0.161,-0.099,-37.964,1.953,-20.630
0.682,-0.108,-0.070,-28.320,-2.563,-20.264
0.718,-0.090,-0.025,-23.621,-6.653,-18.555
0.757,-0.056,0.021,-24.902,-9.521,-14.282
0.801,-0.036,0.051,-28.564,-10.254,-8.362
0.827,0.001,0.058,-32.349,-7.812,-2.930
0.831,0.033,0.040,-33.142,-3.845,0.854
0.828,0.066,0.001,-30.518,-0.610,3.296
0.821,0.108,-0.034,-25.940,0.427,3.906
0.823,0.137,-0.055,-20.813,-0.488,3.784
0.835,0.163,-0.072,-15.869,-2.441,3.357
0.853,0.189,-0.073,-11.108,-4.761,2.686
0.873,0.173,-0.069,-6.531,-7.263,1.770
0.892,0.194,-0.050,-4.395,-8.545,2.258
0.902,0.231,-0.029,-6.470,-9.155,4.944
0.903,0.302,-0.002,-9.827,-9.644,7.446
0.899,0.347,0.025,-13.062,-8.911,8.240
0.905,0.377,0.035,-12.878,-7.019,6.042
0.919,0.356,0.030,-8.789,-3.906,1.038
0.930,0.319,0.009,-3.296,-0.977,-3.357
0.940,0.273,-0.005,-0.061,0.366,-5.432
0.947,0.242,-0.020,0.977,0.671,-5.188
0.943,0.244,-0.029,1.038,0.000,-3.540
0.939,0.260,-0.018,0.671,-0.854,-2.136
0.936,0.288,-0.004,0.488,-1.099,-0.793
0.937,0.308,0.001,0.366,0.061,-0.671
0.939,0.311,-0.007,0.671,1.587,-1.282
0.931,0.312,-0.028,1.038,3.296,-1.770
0.925,0.323,-0.046,1.709,4.211,-1.953
0.916,0.333,-0.057,2.197,4.028,-2.075
0.911,0.331,-0.072,2.563,3.418,-2.380
0.910,0.310,-0.076,3.174,2.502,-2.808
0.911,0.295,-0.071,4.883,1.465,-3.113
0.907,0.301,-0.061,6.592,0.366,-2.930
0.909,0.302,-0.050,6.287,-0.183,-2.441
0.914,0.310,-0.040,4.517,-0.305,-1.221
0.914,0.332,-0.032,1.892,-0.610,0.793
0.918,0.345,-0.036,-0.671,-0.610,2.258
0.923,0.345,-0.043,-1.953,-0.488,2.808
0.923,0.342,-0.051,-2.075,-0.549,2.991
0.919,0.346,-0.056,-1.404,-1.038,3.540
0.914,0.363,-0.048,-0.916,-1.526,3.784
0.906,0.364,-0.038,-1.465,-1.038,3.235
0.901,0.348,-0.036,-0.854,-0.305,2.502
0.906,0.337,-0.056,1.465,0.427,1.404
0.919,0.332,-0.073,4.333,0.122,0.549
0.921,0.360,-0.058,6.104,-1.343,0.793
0.928,0.379,-0.023,3.052,-2.930,1.953
0.927,0.390,0.003,-2.319,-2.808,3.662
0.924,0.388,0.005,-4.639,-1.343,4.211
0.913,0.381,-0.014,-3.723,0.427,3.113
0.913,0.369,-0.042,-0.916,1.648,1.404
0.917,0.361,-0.060,2.197,1.770,0.000
0.922,0.356,-0.058,3.540,1.099,-0.305
0.915,0.367,-0.048,2.380,0.183,0.732
0.915,0.369,-0.040,-0.183,-0.122,1.709
0.919,0.366,-0.043,-1.648,0.183,2.075
0.916,0.363,-0.046,-0.732,0.244,1.709
0.912,0.363,-0.047,1.709,0.427,0.916
0.909,0.368,-0.046,3.296,0.488,-0.183
0.908,0.363,-0.049,3.113,0.793,-0.549
0.911,0.354,-0.059,1.892,1.099,-0.427
0.906,0.351,-0.072,1.404,1.160,-0.183
0.900,0.360,-0.078,2.075,0.671,-0.061
0.904,0.361,-0.076,3.479,-0.061,-0.366
0.903,0.359,-0.071,3.845,-1.038,-0.366
0.905,0.362,-0.064,3.967,-1.648,-0.488
0.906,0.355,-0.053,3.845,-1.892,-0.488
0.907,0.346,-0.050,4.517,-1.404,-1.038
0.907,0.341,-0.048,6.348,-1.160,-1.709
0.910,0.344,-0.039,6.775,-1.343,-1.465
0.920,0.344,-0.030,4.944,-1.831,-0.854
0.926,0.343,-0.026,2.380,-1.587,0.610

0.935,1.409,0.636,41.565,-56.274,65.552
0.995,1.604,0.672,37.231,-54.932,59.937
1.033,1.829,0.737,30.579,-56.458,52.856
1.129,1.985,0.835,23.132,-57.678,42.603
1.244,2.103,0.927,16.113,-53.589,29.297
1.183,2.138,0.985,8.972,-45.898,14.709
1.361,2.161,1.055,4.944,-30.518,-2.380
1.219,2.114,1.012,-1.160,-25.452,-16.968
1.246,2.006,0.993,-6.653,-16.174,-31.250
1.279,1.935,1.021,-12.756,-0.549,-46.753
1.238,1.812,1.001,-20.935,1.404,-55.115
1.173,1.678,0.988,-33.875,4.883,-59.998
1.145,1.570,0.985,-49.255,13.672,-66.101
1.114,1.476,0.973,-60.608,21.973,-71.045
1.039,1.407,0.938,-70.251,26.794,-73.730
0.973,1.328,0.910,-79.102,31.494,-77.026
0.919,1.253,0.879,-86.060,36.682,-82.031
0.862,1.160,0.833,-89.294,42.236,-87.769
0.820,1.077,0.783,-89.844,47.729,-93.445
0.772,1.019,0.738,-87.280,52.490,-98.999
0.716,0.986,0.696,-83.984,56.030,-104.370
0.675,0.924,0.675,-83.557,58.716,-109.497
0.649,0.865,0.672,-87.402,60.608,-113.037
0.615,0.781,0.664,-95.093,62.439,-114.258
0.595,0.696,0.651,-106.384,66.345,-113.708
0.573,0.593,0.602,-117.615,70.801,-112.549
0.563,0.477,0.532,-125.854,74.585,-111.450
0.536,0.377,0.458,-130.737,77.087,-109.619
0.515,0.301,0.377,-131.836,76.416,-108.032
0.500,0.215,0.303,-128.357,75.378,-107.483
0.485,0.133,0.219,-121.887,73.242,-107.178
0.500,0.033,0.139,-113.953,70.557,-106.873
0.500,-0.042,0.053,-103.943,66.711,-105.469
0.500,-0.073,0.003,-93.262,61.035,-103.149
0.521,-0.130,-0.016,-86.365,54.749,-100.098
0.546,-0.165,-0.028,-87.158,48.706,-93.323
0.559,-0.164,-0.036,-93.384,42.480,-82.764
0.567,-0.152,-0.014,-100.464,37.964,-72.327
0.586,-0.183,-0.010,-101.990,36.682,-65.552
0.583,-0.217,-0.043,-96.619,38.635,-61.401
0.576,-0.244,-0.108,-89.233,38.879,-57.373
0.580,-0.272,-0.157,-80.200,36.133,-53.345
0.600,-0.278,-0.190,-70.862,30.212,-48.828
0.609,-0.270,-0.196,-62.317,22.827,-43.335
0.612,-0.263,-0.178,-54.504,14.404,-38.269
0.644,-0.262,-0.144,-49.133,6.592,-33.752
0.676,-0.246,-0.112,-45.776,2.686,-28.564
0.695,-0.224,-0.094,-43.518,0.732,-22.522
0.714,-0.190,-0.082,-42.725,0.305,-16.174
0.714,-0.140,-0.084,-42.175,0.366,-9.705
0.717,-0.100,-0.098,-40.161,-0.061,-5.432
0.722,-0.077,-0.109,-36.926,-0.305,-2.869
0.727,-0.051,-0.100,-31.616,-2.075,-1.709
0.757,-0.028,-0.084,-26.062,-4.333,-0.366
0.762,-0.013,-0.077,-23.987,-6.714,2.319
0.780,0.005,-0.065,-23.560,-8.362,5.127
0.801,0.036,-0.057,-21.667,-9.216,7.568
0.822,0.076,-0.045,-17.944,-9.094,8.667
0.839,0.120,-0.048,-13.184,-7.629,8.850
0.838,0.171,-0.070,-9.644,-6.348,8.667
0.843,0.215,-0.086,-7.629,-5.920,7.751
0.850,0.226,-0.090,-6.287,-5.676,5.981
0.866,0.224,-0.075,-5.066,-6.287,4.639
0.872,0.204,-0.080,-5.188,-6.897,4.517
0.882,0.218,-0.079,-8.057,-6.165,6.287
0.891,0.218,-0.072,-8.911,-6.531,7.385
0.893,0.257,-0.058,-7.507,-6.592,7.446
0.900,0.284,-0.051,-4.456,-5.615,5.981
0.899,0.312,-0.054,-2.319,-4.395,3.662
0.910,0.319,-0.060,-0.549,-3.235,0.610
0.921,0.314,-0.065,1.282,-1.892,-1.892
0.927,0.298,-0.073,2.625,-0.977,-3.113
0.924,0.281,-0.080,2.502,-0.305,-3.662
0.926,0.265,-0.084,2.380,0.061,-3.601
0.918,0.267,-0.092,2.869,-0.122,-3.479
0.923,0.271,-0.092,3.723,-0.916,-3.418
0.938,0.261,-0.085,4.395,-1.831,-3.357
0.948,0.262,-0.080,5.798,-2.014,-2.930
0.946,0.275,-0.079,7.629,-1.282,-2.502
0.948,0.303,-0.070,7.568,-0.916,-1.648
0.936,0.329,-0.067,4.761,-0.549,-0.427
0.935,0.329,-0.071,1.343,-0.061,0.122
0.932,0.322,-0.088,-0.244,0.427,-0.061
0.926,0.323,-0.112,1.099,0.671,-0.488
0.926,0.321,-0.119,3.235,0.183,-1.099
0.928,0.307,-0.114,4.272,-0.793,-1.343
0.930,0.298,-0.108,3.540,-1.465,-0.671
0.930,0.296,-0.105,3.052,-2.014,0.488
0.925,0.307,-0.094,3.052,-2.502,1.282
0.929,0.324,-0.073,2.991,-2.808,1.465
0.930,0.332,-0.060,2.136,-2.869,1.221
0.941,0.327,-0.056,0.610,-2.075,0.610
0.953,0.318,-0.064,0.305,-0.732,0.244
0.951,0.320,-0.075,1.099,-0.122,0.305
0.942,0.324,-0.084,1.709,0.061,0.244
0.938,0.325,-0.085,1.831,-0.549,0.244
0.937,0.324,-0.077,2.625,-0.916,-0.183
0.925,0.331,-0.069,3.784,-0.977,-0.732
0.924,0.332,-0.055,5.127,-0.854,-1.526
0.934,0.330,-0.045,4.395,-0.610,-1.648
0.937,0.319,-0.049,2.075,0.061,-0.671
0.937,0.314,-0.061,-0.671,0.549,0.732
0.935,0.303,-0.071,-1.282,0.916,1.526
0.926,0.309,-0.083,-0.732,1.099,1.953
0.925,0.309,-0.091,0.793,0.854,1.770
0.915,0.318,-0.098,2.014,0.610,1.465
0.907,0.334,-0.103,3.540,0.000,1.282
0.914,0.343,-0.094,3.784,-1.404,0.977
0.926,0.342,-0.075,2.258,-2.014,0.671
0.933,0.340,-0.071,0.793,-1.465,0.671
0.933,0.334,-0.086,0.732,-0.732,0.854
0.928,0.323,-0.105,1.221,-0.488,0.488
0.926,0.316,-0.107,2.075,-1.343,0.610
0.931,0.322,-0.088,2.441,-2.502,1.282
0.925,0.339,-0.063,1.404,-2.930,1.770
0.928,0.337,-0.050,0.305,-2.197,1.770
0.930,0.328,-0.057,-0.122,-0.977,1.526
0.928,0.329,-0.072,0.610,-0.061,1.282
0.920,0.340,-0.079,1.282,-0.427,1.160

0.771,1.215,0.727,55.054,-78.064,63.660
0.810,1.299,0.807,52.368,-77.332,58.167
0.877,1.423,0.858,48.462,-74.402,52.246
0.940,1.566,0.932,43.274,-69.519,47.241
0.989,1.759,0.977,37.292,-64.636,40.222
1.029,1.988,1.011,30.457,-58.105,31.067
1.005,2.092,1.049,20.203,-50.049,18.799
1.037,2.245,1.067,8.362,-43.091,3.296
1.124,2.219,1.150,-0.977,-29.785,-11.719
1.047,2.213,1.120,-12.695,-25.940,-29.907
1.048,2.084,1.121,-21.423,-14.160,-43.762
1.061,1.995,1.139,-31.677,1.221,-59.875
1.030,1.877,1.107,-39.734,5.798,-70.313
0.984,1.761,1.067,-48.767,10.925,-77.637
0.962,1.697,1.038,-58.777,19.348,-86.243
0.901,1.626,1.012,-68.604,28.137,-94.421
0.851,1.534,0.982,-78.979,33.325,-102.173
0.819,1.445,0.983,-88.684,37.964,-110.291
0.754,1.333,0.950,-96.375,40.222,-114.685
0.705,1.232,0.911,-102.234,42.725,-120.117
0.678,1.111,0.859,-105.347,47.913,-126.770
0.661,0.991,0.795,-105.347,53.650,-133.118
0.617,0.877,0.737,-103.821,58.594,-138.428
0.587,0.738,0.696,-103.027,62.195,-142.517
0.564,0.590,0.668,-109.985,65.308,-142.883
0.558,0.461,0.632,-122.620,64.636,-138.550
0.549,0.373,0.580,-135.742,63.965,-132.202
0.539,0.276,0.524,-145.447,63.538,-126.587
0.551,0.160,0.474,-147.095,63.843,-123.169
0.540,0.081,0.410,-140.808,64.209,-120.972
0.511,0.020,0.349,-127.686,65.125,-121.460
0.501,-0.065,0.297,-112.305,67.627,-123.779
0.531,-0.174,0.246,-101.746,69.641,-123.047
0.545,-0.284,0.178,-97.656,68.970,-116.638
0.537,-0.333,0.094,-99.426,65.063,-104.919
0.530,-0.352,0.022,-105.164,60.669,-91.431
0.536,-0.350,-0.026,-107.300,54.565,-80.200
0.550,-0.334,-0.049,-105.103,46.814,-70.251
0.538,-0.297,-0.070,-98.022,39.490,-63.110
0.544,-0.290,-0.076,-85.266,33.813,-59.937
0.553,-0.301,-0.083,-70.313,29.846,-59.326
0.595,-0.340,-0.090,-58.594,26.489,-57.373
0.631,-0.342,-0.075,-54.504,23.132,-50.659
0.652,-0.353,-0.088,-54.504,18.982,-40.222
0.646,-0.282,-0.080,-57.678,16.663,-28.442
0.651,-0.237,-0.079,-59.998,13.428,-19.470
0.664,-0.206,-0.073,-61.523,9.583,-12.756
0.694,-0.189,-0.067,-59.814,6.348,-7.812
0.712,-0.162,-0.058,-53.162,4.272,-4.395
0.731,-0.133,-0.047,-43.335,3.296,-3.113
0.733,-0.102,-0.049,-32.471,2.869,-2.686
0.730,-0.073,-0.064,-22.034,2.441,-2.319
0.733,-0.047,-0.065,-12.390,1.465,-2.136
0.760,-0.026,-0.045,-5.432,-0.488,-2.014
0.777,-0.018,-0.056,-2.319,-3.662,-0.427
0.797,0.018,-0.050,-6.958,-5.615,4.456
0.812,0.042,-0.044,-14.648,-8.301,11.169
0.819,0.077,-0.031,-21.667,-10.864,18.188
0.835,0.133,-0.009,-23.926,-11.108,22.583
0.849,0.180,0.005,-19.531,-9.583,22.949
0.850,0.223,-0.003,-11.963,-6.714,20.203
0.864,0.240,-0.016,-5.798,-3.723,16.418
0.863,0.256,-0.040,-1.343,-1.709,13.916
0.858,0.270,-0.050,1.160,-2.319,12.634
0.868,0.272,-0.035,1.526,-3.906,12.207
0.881,0.272,-0.007,-0.427,-6.165,12.573
0.902,0.288,0.007,-2.869,-6.958,13.550
0.906,0.331,0.017,-6.653,-5.676,15.381
0.909,0.370,0.021,-7.263,-5.127,15.747
0.896,0.379,0.011,-5.493,-4.028,14.343
0.898,0.424,0.013,-2.625,-1.709,11.169
0.901,0.437,0.012,1.587,0.916,6.775
0.898,0.440,-0.005,6.592,3.479,1.709
0.902,0.408,-0.024,10.315,4.944,-2.625
0.921,0.375,-0.038,11.841,6.104,-4.700
0.913,0.360,-0.049,11.780,5.737,-4.761
0.911,0.374,-0.045,9.521,4.028,-3.540
0.908,0.375,-0.029,5.005,2.258,-2.258
0.913,0.368,-0.017,0.793,1.526,-0.854
0.909,0.375,-0.027,0.488,1.892,-0.122
0.902,0.391,-0.037,0.549,2.930,-0.183
0.902,0.378,-0.052,1.160,2.686,-1.038
0.909,0.369,-0.067,2.136,2.625,-1.526
0.908,0.366,-0.069,3.967,2.380,-1.953
0.900,0.380,-0.067,5.493,1.465,-1.770
0.893,0.384,-0.058,5.249,0.488,-1.587
0.892,0.384,-0.049,3.967,-0.244,-1.770
0.897,0.387,-0.034,3.418,-0.732,-1.953
0.905,0.384,-0.023,2.136,-0.916,-1.770
0.912,0.374,-0.015,0.000,-0.549,-1.465
0.913,0.358,-0.025,-1.465,0.061,-0.549
0.912,0.346,-0.039,-2.380,0.305,0.549
0.917,0.343,-0.051,-2.563,0.122,1.648
0.914,0.365,-0.046,-2.441,-1.038,2.991
0.917,0.379,-0.034,-2.380,-1.526,3.601
0.920,0.381,-0.030,-1.709,-0.854,3.357
0.913,0.383,-0.040,0.977,-0.366,2.502
0.906,0.384,-0.048,3.906,-0.427,1.587
0.896,0.388,-0.048,5.981,-1.099,0.671
0.895,0.391,-0.029,7.385,-1.831,-0.427
0.910,0.377,-0.005,6.531,-2.014,-1.160
0.917,0.374,0.001,3.296,-1.831,0.366
0.914,0.367,-0.006,0.549,-1.404,2.441
0.917,0.366,-0.016,-0.732,-0.977,3.662
0.916,0.380,-0.016,-0.366,-1.404,4.395
0.910,0.404,-0.001,0.488,-1.465,4.578
0.918,0.409,0.009,0.122,0.000,3.662
0.918,0.386,-0.004,-1.526,1.526,3.113
0.911,0.369,-0.034,-2.991,2.563,3.784
0.910,0.359,-0.063,-3.357,2.441,4.578
0.912,0.360,-0.081,-2.747,1.221,5.676
0.911,0.381,-0.075,-1.770,-0.305,6.409
0.899,0.412,-0.052,-0.366,-2.197,6.226
0.895,0.430,-0.024,1.587,-2.991,5.066
0.898,0.432,-0.014,3.296,-2.014,2.380
0.905,0.425,-0.020,5.981,-0.793,-0.244
0.905,0.419,-0.022,7.935,0.183,-2.258
0.909,0.412,-0.015,8.850,0.549,-3.113
0.910,0.404,-0.012,7.263,0.977,-3.296

0.829,1.295,0.827,47.546,-77.332,45.532
0.878,1.431,0.866,40.039,-70.984,41.260
0.974,1.580,0.888,32.898,-64.392,35.034
1.022,1.722,0.953,28.442,-57.434,25.024
1.059,1.851,0.984,24.475,-59.265,15.625
1.043,1.941,1.003,19.348,-51.331,4.456
1.160,1.973,1.097,12.329,-36.560,-11.658
1.119,1.921,1.087,1.282,-33.752,-20.752
1.141,1.870,1.098,-9.033,-24.597,-30.457
1.134,1.836,1.081,-20.386,-11.963,-39.795
1.116,1.785,1.054,-32.898,-3.479,-47.302
1.075,1.756,1.018,-47.058,3.845,-52.490
1.017,1.711,0.988,-61.890,9.094,-57.190
0.979,1.663,0.964,-73.792,14.526,-63.599
0.937,1.615,0.938,-81.787,20.447,-70.801
0.893,1.559,0.907,-87.219,25.879,-78.613
0.856,1.472,0.880,-91.187,32.166,-87.646
0.820,1.379,0.843,-92.529,39.124,-96.863
0.786,1.294,0.805,-92.957,46.021,-105.103
0.732,1.232,0.772,-95.154,51.819,-111.755
0.674,1.117,0.761,-101.563,55.664,-116.943
0.672,0.997,0.743,-113.586,59.692,-120.789
0.629,0.844,0.699,-126.221,63.782,-121.094
0.583,0.709,0.629,-136.963,64.392,-122.375
0.565,0.537,0.560,-141.479,67.810,-124.023
0.516,0.377,0.465,-139.221,70.435,-125.000
0.494,0.255,0.365,-130.615,71.411,-126.587
0.470,0.164,0.274,-117.676,70.740,-127.136
0.462,0.122,0.216,-104.248,66.833,-127.075
0.465,0.074,0.197,-93.750,61.707,-125.549
0.471,0.033,0.186,-90.088,57.251,-121.582
0.467,-0.001,0.174,-91.919,54.138,-115.540
0.483,-0.046,0.160,-95.154,51.941,-109.009
0.475,-0.087,0.143,-99.182,49.133,-100.830
0.464,-0.122,0.127,-101.440,47.363,-93.140
0.483,-0.167,0.118,-98.145,46.082,-88.501
0.508,-0.205,0.103,-90.637,45.715,-84.412
0.532,-0.245,0.070,-81.238,45.837,-79.346
0.555,-0.263,0.019,-72.754,44.189,-73.242
0.542,-0.254,-0.032,-65.308,41.382,-65.430
0.532,-0.205,-0.090,-59.204,35.828,-58.350
0.544,-0.204,-0.099,-54.871,29.297,-53.101
0.571,-0.217,-0.098,-52.246,21.851,-47.791
0.622,-0.234,-0.084,-50.293,15.015,-41.382
0.647,-0.212,-0.068,-49.377,11.414,-33.081
0.663,-0.180,-0.055,-49.622,10.376,-24.292
0.674,-0.170,-0.068,-46.570,10.132,-18.188
0.679,-0.140,-0.095,-41.748,10.071,-12.878
0.681,-0.106,-0.125,-34.180,8.850,-8.728
0.693,-0.061,-0.149,-26.306,6.104,-5.615
0.700,-0.008,-0.163,-19.348,2.075,-3.357
0.718,0.021,-0.155,-13.306,-2.014,-2.014
0.729,0.054,-0.127,-9.583,-5.798,0.122
0.748,0.087,-0.090,-8.179,-8.301,2.808
0.774,0.105,-0.054,-9.155,-10.559,6.165
0.797,0.156,-0.035,-11.780,-11.108,10.010
0.813,0.184,-0.023,-14.648,-9.888,13.367
0.831,0.209,-0.029,-13.916,-8.179,14.160
0.848,0.234,-0.044,-11.169,-7.446,13.672
0.856,0.259,-0.048,-7.507,-7.080,12.817
0.852,0.285,-0.055,-3.662,-7.141,11.780
0.850,0.313,-0.053,0.061,-8.240,10.742
0.864,0.323,-0.031,3.296,-9.216,8.545
0.894,0.325,-0.002,4.761,-8.911,6.653
0.911,0.339,0.011,3.662,-7.812,6.531
0.906,0.364,0.012,0.244,-6.897,8.057
0.906,0.388,0.013,-2.808,-6.104,8.789
0.906,0.413,0.018,-3.418,-4.761,8.118
0.905,0.433,0.022,-1.282,-2.625,5.432
0.910,0.421,0.018,2.502,-0.061,1.282
0.920,0.393,-0.004,6.226,2.319,-2.136
0.915,0.377,-0.024,9.766,3.052,-3.418
0.919,0.385,-0.019,10.315,1.953,-3.357
0.923,0.388,0.001,7.019,1.038,-2.197
0.926,0.389,0.012,1.343,1.282,-0.427
0.930,0.389,0.006,-2.136,2.502,0.854
0.935,0.389,-0.017,-2.625,4.211,1.221
0.928,0.401,-0.039,-1.343,5.127,1.099
0.926,0.419,-0.051,0.549,5.005,0.366
0.921,0.427,-0.047,1.770,5.127,-0.610
0.912,0.429,-0.050,2.625,6.287,-1.465
0.906,0.415,-0.057,3.662,7.263,-2.563
0.895,0.411,-0.073,5.188,7.324,-3.052
0.898,0.400,-0.072,6.714,5.920,-3.418
0.897,0.391,-0.066,5.554,4.150,-2.991
0.897,0.385,-0.054,1.465,2.563,-1.709
0.893,0.368,-0.049,-2.563,2.441,-0.305
0.900,0.344,-0.061,-3.235,2.991,0.244
0.911,0.339,-0.073,-0.977,3.479,0.793
0.903,0.365,-0.086,1.892,3.174,1.953
0.888,0.396,-0.076,2.869,1.099,3.174
0.890,0.412,-0.054,0.916,-0.061,3.723
0.894,0.408,-0.046,-1.282,-0.122,3.784
0.891,0.403,-0.054,-1.465,0.183,3.662
0.877,0.402,-0.068,0.183,0.366,3.235
0.866,0.410,-0.071,2.380,-0.366,2.686
0.865,0.419,-0.052,3.296,-2.014,2.075
0.888,0.413,-0.040,2.625,-2.136,1.404
0.894,0.399,-0.041,2.686,-0.854,0.793
0.891,0.394,-0.053,4.395,-0.122,0.793
0.881,0.394,-0.057,5.981,-0.183,0.610
0.884,0.397,-0.045,5.249,-1.099,0.977
0.887,0.406,-0.027,1.953,-2.014,2.625
0.888,0.416,-0.013,-1.648,-1.648,3.723
0.887,0.416,-0.016,-3.540,-0.244,3.845
0.885,0.412,-0.029,-3.052,0.854,3.296
0.884,0.408,-0.051,-1.648,1.709,2.441
0.877,0.400,-0.067,-0.610,1.648,1.709
0.878,0.389,-0.078,0.305,1.221,1.221
0.884,0.383,-0.074,2.197,0.854,0.610
0.879,0.399,-0.063,3.906,0.305,0.549
0.880,0.408,-0.053,5.249,-0.122,0.244
0.886,0.410,-0.042,5.249,-0.427,-0.305
0.893,0.406,-0.037,4.578,-0.305,-0.549
0.903,0.400,-0.038,3.906,0.366,-0.671
0.903,0.400,-0.053,3.113,0.916,-0.183
0.903,0.400,-0.066,1.709,1.404,0.427
0.898,0.403,-0.072,0.366,1.038,1.404
0.895,0.408,-0.073,-0.183,0.488,1.892

0.709,1.470,0.643,64.270,-60.303,71.472
0.763,1.611,0.689,56.763,-60.913,65.186
0.823,1.795,0.770,46.570,-62.134,59.082
0.909,2.028,0.839,36.560,-60.669,50.964
0.913,2.194,0.916,29.297,-59.509,39.795
0.984,2.375,0.965,20.996,-59.570,27.954
0.976,2.445,0.983,9.705,-49.500,11.719
1.047,2.464,1.010,1.221,-37.415,-8.118
1.002,2.445,0.988,-8.118,-30.334,-23.865
1.000,2.395,0.979,-17.212,-19.836,-41.870
0.974,2.279,0.968,-27.405,-9.216,-59.448
0.960,2.133,0.945,-38.696,-1.953,-74.646
0.927,1.960,0.926,-51.392,4.944,-86.975
0.895,1.800,0.902,-64.087,11.719,-96.741
0.865,1.655,0.885,-74.829,17.456,-104.858
0.818,1.544,0.873,-83.557,22.827,-111.267
0.776,1.448,0.854,-91.125,27.893,-117.432
0.750,1.309,0.836,-97.412,33.386,-123.901
0.728,1.160,0.789,-99.854,39.429,-131.348
0.711,1.020,0.732,-97.046,45.288,-138.428
0.649,0.877,0.677,-92.346,51.453,-143.555
0.654,0.782,0.632,-89.844,56.702,-147.400
0.632,0.627,0.598,-92.041,61.096,-147.156
0.589,0.554,0.562,-99.854,60.486,-144.592
0.554,0.484,0.528,-110.718,59.265,-139.832
0.540,0.361,0.505,-121.521,59.692,-136.536
0.559,0.180,0.467,-128.723,63.171,-134.277
0.565,0.076,0.404,-132.019,67.200,-129.395
0.542,0.009,0.327,-130.432,71.655,-123.901
0.516,-0.083,0.267,-122.314,73.914,-119.629
0.509,-0.127,0.179,-111.389,76.111,-117.432
0.522,-0.226,0.110,-100.281,75.806,-114.319
0.532,-0.280,0.022,-91.614,73.242,-107.422
0.508,-0.320,-0.045,-87.585,69.336,-97.961
0.515,-0.338,-0.105,-85.388,62.744,-88.074
0.514,-0.339,-0.142,-84.534,53.345,-76.782
0.518,-0.316,-0.143,-82.886,43.518,-66.528
0.556,-0.306,-0.124,-79.224,35.706,-58.105
0.550,-0.306,-0.098,-74.707,29.419,-49.927
0.588,-0.280,-0.080,-68.054,26.367,-42.969
0.594,-0.252,-0.073,-59.998,25.635,-36.621
0.574,-0.202,-0.091,-51.208,25.085,-31.189
0.594,-0.175,-0.118,-46.143,23.804,-27.283
0.615,-0.156,-0.136,-45.837,20.203,-21.912
0.633,-0.152,-0.151,-46.143,13.855,-16.052
0.647,-0.117,-0.156,-42.297,8.179,-10.864
0.661,-0.055,-0.147,-36.194,3.662,-7.141
0.666,-0.019,-0.140,-26.489,-0.977,-5.737
0.672,0.029,-0.122,-17.273,-4.211,-5.859
0.684,0.055,-0.107,-7.690,-6.897,-7.568
0.704,0.062,-0.083,1.404,-9.033,-9.705
0.736,0.058,-0.055,6.348,-10.010,-10.132
0.771,0.072,-0.017,4.395,-11.292,-6.653
0.786,0.063,-0.023,-1.709,-12.268,-0.977
0.803,0.117,-0.021,-11.963,-10.864,7.202
0.820,0.151,-0.024,-19.714,-9.094,13.733
0.824,0.179,-0.046,-21.790,-7.690,17.273
0.824,0.225,-0.076,-18.738,-5.920,18.066
0.832,0.275,-0.096,-12.451,-5.554,16.296
0.834,0.312,-0.108,-7.019,-5.798,13.611
0.834,0.333,-0.116,-1.709,-6.836,10.254
0.845,0.345,-0.115,2.930,-8.301,6.775
0.864,0.358,-0.089,6.287,-10.315,4.211
0.892,0.374,-0.044,6.653,-12.024,3.113
0.917,0.387,-0.002,4.700,-12.085,3.235
0.939,0.389,0.021,1.831,-9.705,3.052
0.937,0.393,0.024,-1.343,-6.409,3.235
0.932,0.403,0.010,-2.747,-3.357,2.747
0.923,0.409,-0.007,-1.953,-0.793,1.160
0.919,0.407,-0.018,0.732,0.793,-1.038
0.930,0.407,-0.026,4.700,2.380,-3.479
0.942,0.382,-0.045,7.690,4.150,-5.676
0.938,0.374,-0.067,9.949,4.578,-6.653
0.939,0.378,-0.070,9.399,3.906,-5.920
0.934,0.382,-0.065,5.737,2.625,-4.028
0.931,0.387,-0.057,0.244,1.587,-2.136
0.929,0.391,-0.049,-3.967,1.465,-0.366
0.921,0.404,-0.052,-5.554,2.197,0.488
0.918,0.402,-0.058,-4.272,3.357,-0.427
0.912,0.403,-0.058,-1.343,4.822,-1.953
0.903,0.406,-0.080,1.709,6.165,-3.296
0.898,0.399,-0.091,4.272,5.432,-4.333
0.896,0.405,-0.095,5.066,3.784,-4.883
0.896,0.384,-0.083,4.639,1.831,-4.944
0.903,0.362,-0.067,3.052,0.793,-4.333
0.913,0.350,-0.062,1.709,0.427,-3.296
0.907,0.347,-0.072,1.404,0.610,-2.625
0.903,0.359,-0.080,0.916,1.282,-1.709
0.900,0.365,-0.081,-0.244,1.465,-0.916
0.899,0.377,-0.083,-0.977,1.221,-0.427
0.900,0.381,-0.088,-0.977,0.916,-0.122
0.897,0.384,-0.093,0.427,0.732,-0.366
0.891,0.385,-0.089,2.747,-0.122,-1.038
0.891,0.387,-0.073,5.188,-1.038,-1.892
0.896,0.388,-0.064,6.531,-0.732,-2.686
0.898,0.380,-0.068,7.202,0.061,-2.930
0.901,0.380,-0.073,8.057,0.305,-3.113
0.899,0.358,-0.081,9.033,-0.183,-2.930
0.904,0.373,-0.060,8.179,-1.038,-1.709
0.910,0.373,-0.034,3.723,-2.197,0.916
0.903,0.369,-0.026,-3.174,-2.014,4.639
0.906,0.393,-0.034,-9.827,-0.061,7.568
0.899,0.401,-0.044,-12.634,-0.244,9.033
0.891,0.425,-0.048,-13.123,0.122,8.850
0.888,0.433,-0.052,-10.559,0.854,6.775
0.887,0.425,-0.070,-6.531,1.831,3.601
0.886,0.406,-0.095,-1.831,2.625,0.427
0.884,0.388,-0.111,2.930,2.319,-1.953
0.884,0.377,-0.111,6.287,0.671,-2.869
0.884,0.379,-0.099,7.080,-1.404,-2.869
0.889,0.379,-0.075,6.348,-3.357,-2.502
0.889,0.377,-0.058,5.188,-3.723,-2.197
0.890,0.372,-0.055,5.920,-3.113,-2.380
0.895,0.373,-0.055,7.690,-2.441,-2.747
0.900,0.376,-0.052,7.874,-1.892,-2.625
0.901,0.376,-0.048,5.737,-1.282,-1.709
0.905,0.371,-0.049,2.991,-0.549,-0.427
0.904,0.370,-0.059,1.404,-0.061,0.977
0.900,0.377,-0.072,1.038,0.061,1.953

0.865,1.263,0.789,50.476,-56.396,34.973
0.991,1.462,0.859,46.021,-56.335,29.236
1.084,1.619,0.917,40.283,-50.049,23.743
1.107,1.781,0.983,30.212,-46.204,18.250
1.175,1.905,1.019,18.677,-40.222,8.911
1.222,1.915,1.078,3.845,-27.100,-0.488
1.208,1.942,1.074,-12.512,-15.015,-7.385
1.222,1.955,1.098,-26.306,-4.578,-15.930
1.166,1.969,1.097,-38.757,4.395,-23.865
1.122,2.008,1.058,-48.828,11.169,-32.776
1.056,1.959,1.029,-56.519,16.663,-44.861
1.025,1.910,0.999,-63.660,23.804,-57.739
0.959,1.821,0.942,-70.129,33.386,-70.801
0.919,1.676,0.896,-73.730,41.443,-84.961
0.862,1.550,0.840,-75.623,48.157,-96.863
0.795,1.466,0.789,-78.125,52.185,-105.896
0.708,1.350,0.754,-82.520,54.016,-113.403
0.699,1.248,0.742,-87.952,56.824,-120.972
0.637,1.109,0.711,-93.872,59.753,-125.183
0.594,0.993,0.676,-99.487,62.500,-130.127
0.577,0.843,0.626,-101.868,66.895,-133.911
0.503,0.744,0.561,-103.821,70.984,-135.803
0.487,0.648,0.520,-105.469,72.144,-138.855
0.467,0.516,0.471,-110.779,73.730,-139.465
0.450,0.402,0.398,-115.967,73.730,-137.390
0.411,0.320,0.334,-117.737,72.083,-134.460
0.400,0.244,0.264,-117.554,69.214,-132.263
0.418,0.150,0.215,-117.615,66.650,-129.700
0.416,0.046,0.179,-117.676,62.805,-125.183
0.402,-0.003,0.157,-117.615,58.838,-119.019
0.407,-0.043,0.149,-113.403,56.030,-114.441
0.407,-0.052,0.128,-108.032,53.284,-110.901
0.433,-0.059,0.101,-102.966,49.622,-107.666
0.456,-0.094,0.075,-98.999,46.570,-104.492
0.479,-0.170,0.039,-94.788,45.105,-101.196
0.494,-0.231,-0.012,-90.759,43.030,-95.825
0.491,-0.232,-0.049,-88.196,38.696,-88.013
0.503,-0.242,-0.066,-85.693,31.372,-79.834
0.516,-0.247,-0.060,-82.397,24.048,-72.449
0.543,-0.251,-0.058,-76.660,17.944,-66.467
0.566,-0.271,-0.041,-66.406,12.512,-62.317
0.608,-0.274,-0.019,-56.335,9.766,-58.594
0.638,-0.272,-0.012,-49.561,8.118,-53.040
0.651,-0.252,-0.007,-47.607,6.775,-45.715
0.660,-0.256,-0.006,-46.448,5.432,-38.330
0.678,-0.255,-0.007,-45.349,3.296,-30.762
0.708,-0.240,-0.015,-45.349,0.610,-22.949
0.718,-0.209,-0.018,-45.349,-1.709,-14.404
0.726,-0.172,-0.027,-43.518,-4.150,-7.385
0.742,-0.127,-0.034,-38.574,-6.165,-3.479
0.764,-0.083,-0.036,-30.640,-7.996,-1.526
0.789,-0.032,-0.032,-23.499,-8.728,-0.122
0.791,0.018,-0.038,-17.212,-9.155,1.160
0.788,0.057,-0.037,-10.864,-9.766,0.732
0.821,0.074,-0.007,-6.287,-9.583,-0.916
0.849,0.105,0.016,-8.362,-10.254,0.732
0.869,0.102,0.028,-13.916,-11.597,4.639
0.889,0.149,0.043,-19.775,-9.705,8.789
0.887,0.173,0.032,-24.048,-6.958,12.024
0.896,0.174,0.011,-22.034,-5.310,11.902
0.906,0.187,0.004,-16.418,-3.662,10.315
0.896,0.226,0.005,-8.911,-1.953,8.484
0.897,0.278,-0.007,-2.930,-1.404,5.371
0.914,0.293,-0.006,-0.854,-1.770,1.953
0.938,0.290,-0.003,-1.282,-2.563,-0.061
0.961,0.280,0.014,-2.930,-3.418,-0.427
0.977,0.278,0.032,-4.639,-2.991,0.244
0.960,0.289,0.023,-5.981,-1.831,0.977
0.956,0.292,0.024,-7.568,1.038,0.916
0.957,0.280,0.026,-5.432,3.601,-0.671
0.960,0.283,0.019,-1.343,7.141,-2.502
0.950,0.270,-0.006,3.662,10.010,-4.333
0.951,0.264,-0.037,7.019,11.230,-5.981
0.953,0.260,-0.069,7.446,10.376,-6.287
0.955,0.259,-0.077,5.981,7.935,-5.310
0.954,0.242,-0.081,6.348,5.310,-4.578
0.946,0.264,-0.086,7.874,3.479,-3.906
0.943,0.281,-0.077,7.935,2.258,-3.479
0.942,0.278,-0.068,8.423,0.549,-3.418
0.939,0.284,-0.055,9.521,0.183,-3.296
0.943,0.303,-0.031,10.620,0.000,-3.296
0.943,0.267,-0.022,7.874,0.366,-2.808
0.950,0.277,-0.019,1.770,0.732,-0.305
0.950,0.266,-0.024,-3.113,1.160,2.502
0.947,0.271,-0.032,-3.967,0.610,4.456
0.941,0.297,-0.024,-2.686,0.000,5.127
0.940,0.325,-0.004,-1.160,-0.366,4.639
0.943,0.325,0.003,-0.305,1.038,3.174
0.945,0.305,-0.013,0.732,2.625,1.709
0.937,0.287,-0.040,2.319,3.845,0.916
0.928,0.287,-0.058,4.272,3.418,0.916
0.917,0.301,-0.054,5.371,2.136,1.038
0.911,0.300,-0.039,3.967,0.977,1.709
0.902,0.278,-0.036,0.183,0.854,2.747
0.907,0.250,-0.057,-1.404,1.038,3.418
0.923,0.233,-0.086,0.427,1.221,3.845
0.923,0.252,-0.098,3.662,0.427,4.883
0.916,0.299,-0.064,4.700,-2.258,6.653
0.923,0.316,-0.019,2.014,-3.235,7.629
0.928,0.303,-0.004,-1.038,-1.770,7.874
0.933,0.304,-0.020,-1.038,0.183,7.996
0.927,0.331,-0.040,0.977,0.671,8.362
0.917,0.364,-0.041,1.221,-0.061,8.118
0.920,0.375,-0.028,-0.427,-0.854,7.202
0.914,0.363,-0.022,-1.587,-0.183,5.859
0.907,0.344,-0.035,0.366,0.732,3.662
0.919,0.330,-0.062,4.822,1.282,0.854
0.933,0.318,-0.078,9.155,1.343,-1.099
0.941,0.322,-0.062,11.230,0.366,-1.099
0.939,0.344,-0.037,8.789,-0.916,0.916
0.937,0.336,-0.024,3.357,-1.099,2.930
0.929,0.319,-0.029,-0.488,-0.183,3.845
0.922,0.306,-0.055,0.427,0.610,3.479
0.922,0.308,-0.073,4.150,0.671,2.686
0.914,0.335,-0.065,7.019,-0.366,2.136
0.919,0.347,-0.033,5.615,-2.197,2.075
0.920,0.337,-0.012,1.282,-2.441,2.930
0.920,0.319,-0.016,-2.075,-1.770,3.845
0.933,0.307,-0.037,-1.587,-0.610,4.150

0.397,1.768,0.845,62.866,-74.463,117.493
0.555,2.108,0.936,62.561,-70.984,106.445
0.627,2.402,1.017,59.875,-70.923,95.459
0.683,2.784,1.131,46.997,-74.341,80.322
0.796,3.091,1.237,28.442,-70.740,58.350
0.871,3.290,1.305,8.484,-60.547,32.593
0.915,3.421,1.318,-10.376,-50.232,6.226
0.888,3.415,1.302,-26.917,-40.283,-22.217
0.903,3.304,1.267,-40.894,-27.893,-54.260
0.896,3.137,1.210,-52.979,-12.634,-85.938
0.853,2.957,1.152,-62.805,-2.808,-113.098
0.831,2.765,1.149,-71.838,3.662,-136.353
0.777,2.563,1.157,-83.374,9.583,-155.396
0.732,2.408,1.173,-97.473,15.137,-172.241
0.634,2.182,1.183,-111.694,20.691,-187.195
0.564,1.933,1.180,-123.901,27.893,-201.965
0.506,1.654,1.161,-130.554,38.086,-216.736
0.354,1.282,1.092,-131.104,47.546,-229.065
0.333,0.922,1.039,-128.174,60.181,-241.821
0.318,0.481,1.004,-130.066,74.280,-245.972
0.319,0.178,0.930,-140.808,79.895,-242.554
0.325,-0.073,0.791,-151.611,84.167,-230.347
0.325,-0.265,0.636,-155.212,87.524,-215.820
0.319,-0.371,0.471,-150.452,87.158,-203.491
0.305,-0.448,0.316,-136.597,85.693,-195.618
0.331,-0.528,0.178,-121.277,82.642,-189.026
0.354,-0.589,0.052,-110.352,76.050,-179.749
0.377,-0.648,-0.039,-101.379,67.627,-167.236
0.347,-0.667,-0.067,-95.093,57.861,-151.917
0.371,-0.641,-0.033,-87.341,50.476,-138.184
0.395,-0.636,-0.002,-77.759,48.096,-127.258
0.398,-0.652,0.024,-71.594,47.546,-118.042
0.455,-0.726,0.010,-69.458,46.692,-105.774
0.492,-0.739,-0.035,-72.205,44.434,-89.050
0.484,-0.701,-0.083,-77.759,40.955,-69.397
0.455,-0.659,-0.116,-82.764,32.776,-51.147
0.469,-0.609,-0.115,-79.651,23.437,-38.391
0.459,-0.559,-0.107,-68.359,17.883,-30.090
0.468,-0.488,-0.101,-52.002,12.329,-26.123
0.507,-0.434,-0.077,-36.133,7.080,-23.865
0.562,-0.385,-0.041,-24.719,2.563,-20.386
0.603,-0.357,-0.006,-16.602,-1.892,-14.648
0.642,-0.287,0.039,-11.108,-3.479,-7.874
0.660,-0.223,0.073,-10.620,-2.686,-0.732
0.681,-0.174,0.077,-16.113,-2.991,7.812
0.715,-0.139,0.076,-25.574,-2.625,16.846
0.739,-0.107,0.063,-33.875,-2.747,25.330
0.744,-0.041,0.048,-36.011,-2.625,31.616
0.739,0.023,0.042,-31.372,-2.380,33.630
0.748,0.082,0.033,-23.804,-1.160,31.982
0.764,0.118,0.014,-15.747,0.061,29.175
0.777,0.136,-0.002,-8.728,0.488,26.184
0.789,0.169,-0.022,-2.747,-0.122,23.987
0.811,0.201,-0.005,1.282,-1.709,22.278
0.835,0.239,0.008,1.953,-3.540,22.095
0.846,0.292,0.033,1.587,-5.798,22.156
0.852,0.306,0.039,1.343,-5.493,20.996
0.878,0.334,0.051,1.953,-4.578,19.104
0.885,0.347,0.056,4.150,-3.174,15.991
0.898,0.354,0.051,6.287,-1.038,12.878
0.917,0.338,0.031,7.812,2.319,10.010
0.934,0.319,0.002,9.644,5.615,8.240
0.939,0.333,-0.020,10.559,6.958,8.301
0.946,0.361,-0.027,9.338,5.615,9.521
0.968,0.374,-0.010,4.944,3.418,11.414
0.966,0.394,0.000,-1.770,3.357,15.198
0.963,0.396,-0.010,-5.127,3.784,16.785
0.961,0.400,-0.030,-4.883,6.287,16.113
0.948,0.423,-0.050,-1.953,7.996,15.015
0.929,0.455,-0.071,0.916,7.690,13.062
0.923,0.473,-0.077,2.686,6.287,10.620
0.928,0.477,-0.061,2.991,5.493,8.057
0.934,0.454,-0.056,5.371,4.822,5.005
0.920,0.455,-0.077,9.827,5.127,1.831
0.917,0.430,-0.080,14.526,4.761,-1.343
0.903,0.434,-0.081,17.395,2.441,-3.052
0.906,0.430,-0.054,16.235,-0.366,-3.174
0.906,0.434,-0.022,10.681,-1.404,-2.197
0.891,0.421,-0.010,4.517,-1.038,-0.610
0.891,0.392,-0.026,1.953,0.061,-0.305
0.889,0.371,-0.052,2.930,0.427,-0.854
0.879,0.375,-0.058,5.737,-0.671,-1.465
0.878,0.387,-0.037,7.629,-2.380,-1.892
0.885,0.372,-0.010,6.897,-3.113,-2.197
0.889,0.356,0.002,5.188,-2.441,-1.648
0.883,0.343,-0.002,4.517,-1.953,-0.427
0.881,0.337,-0.018,4.883,-1.892,0.671
0.882,0.339,-0.028,5.188,-2.441,1.770
0.877,0.360,-0.011,5.493,-3.967,3.296
0.872,0.385,0.021,4.578,-4.944,4.333
0.886,0.378,0.038,1.038,-3.845,4.456
0.891,0.352,0.030,-1.343,-1.709,5.066
0.892,0.340,0.001,-0.916,-0.305,5.493
0.900,0.344,-0.024,0.977,0.305,6.104
0.907,0.361,-0.041,2.563,-0.610,7.202
0.911,0.384,-0.035,2.502,-1.831,8.423
0.912,0.427,-0.004,1.709,-3.113,9.705
0.910,0.449,0.019,-0.916,-2.625,10.071
0.911,0.445,0.019,-2.747,-0.366,9.277
0.910,0.430,-0.004,-2.014,1.221,7.568
0.906,0.419,-0.031,0.366,2.075,6.042
0.902,0.419,-0.048,2.136,1.404,5.066
0.902,0.421,-0.046,2.319,-0.549,4.944
0.905,0.423,-0.030,0.366,-2.197,5.554
0.904,0.432,-0.012,-1.770,-2.808,6.287
0.902,0.438,-0.005,-2.014,-2.747,6.226
0.898,0.442,-0.011,-0.122,-1.648,4.578
0.895,0.443,-0.025,2.930,-1.160,2.563
0.893,0.439,-0.027,5.249,-1.587,0.732
0.900,0.434,-0.011,5.310,-2.136,-0.305
0.901,0.427,0.001,2.808,-1.709,-0.305
0.905,0.412,0.001,-0.244,-0.427,0.366
0.899,0.399,-0.013,-1.404,0.183,0.732
0.896,0.398,-0.024,-0.610,0.061,0.916
0.891,0.408,-0.027,1.038,-1.099,0.854
0.887,0.410,-0.024,2.502,-2.380,0.549
0.889,0.410,-0.009,4.028,-3.113,-0.305
0.891,0.414,0.002,4.639,-3.174,-0.977
0.901,0.405,0.005,3.601,-1.648,-1.587

0.730,1.319,0.804,57.861,-71.106,42.053
0.746,1.392,0.817,53.528,-71.045,37.415
0.833,1.478,0.874,51.392,-61.707,28.809
0.855,1.533,0.909,51.025,-55.786,21.790
0.865,1.639,0.920,48.401,-51.086,15.198
0.914,1.751,0.984,44.128,-44.250,7.507
0.934,1.849,1.045,35.339,-44.434,0.854
0.944,1.900,1.099,21.667,-41.077,-5.554
0.973,1.884,1.133,7.751,-29.663,-14.404
0.977,1.883,1.130,-4.639,-19.348,-23.315
0.948,1.848,1.092,-14.404,-7.629,-31.433
0.911,1.821,1.031,-23.071,0.671,-38.330
0.854,1.785,1.021,-31.250,9.094,-44.312
0.830,1.779,0.991,-38.513,13.794,-53.223
0.808,1.745,0.950,-43.579,15.747,-62.561
0.778,1.706,0.932,-48.279,18.311,-71.472
0.754,1.670,0.912,-53.467,22.278,-80.688
0.740,1.622,0.883,-60.730,25.940,-88.562
0.676,1.554,0.871,-70.190,27.771,-95.947
0.672,1.442,0.866,-78.552,32.898,-104.370
0.637,1.318,0.845,-85.144,39.246,-112.000
0.614,1.212,0.813,-87.830,46.265,-119.263
0.577,1.085,0.773,-90.881,52.063,-125.488
0.572,0.963,0.728,-97.839,56.335,-128.845
0.548,0.805,0.701,-106.140,58.350,-129.333
0.525,0.679,0.646,-113.525,59.570,-128.784
0.510,0.567,0.592,-117.493,60.791,-128.784
0.480,0.454,0.529,-116.089,61.829,-129.089
0.459,0.365,0.468,-110.779,62.256,-129.822
0.458,0.296,0.418,-104.614,61.707,-130.432
0.470,0.231,0.384,-99.548,60.730,-129.578
0.471,0.155,0.358,-96.252,58.533,-127.319
0.480,0.102,0.336,-92.651,57.495,-124.146
0.499,0.053,0.318,-89.355,58.289,-120.483
0.506,0.028,0.286,-88.501,59.021,-115.662
0.529,-0.017,0.246,-88.745,58.411,-109.802
0.508,-0.031,0.202,-89.355,57.617,-103.210
0.523,-0.069,0.163,-88.562,56.702,-98.572
0.531,-0.102,0.133,-84.412,54.077,-94.360
0.543,-0.117,0.108,-76.294,50.842,-90.759
0.559,-0.133,0.076,-65.796,48.462,-88.135
0.571,-0.155,0.055,-56.702,45.593,-85.083
0.603,-0.152,0.050,-53.162,42.236,-79.346
0.606,-0.184,0.042,-51.575,39.124,-72.449
0.618,-0.177,0.047,-53.101,36.865,-63.538
0.632,-0.182,0.038,-56.519,35.339,-54.749
0.641,-0.176,0.021,-59.082,33.020,-46.631
0.646,-0.179,-0.003,-60.791,29.541,-38.513
0.658,-0.174,-0.030,-60.425,26.611,-31.494
0.667,-0.177,-0.058,-56.274,23.193,-25.757
0.685,-0.166,-0.078,-48.401,19.592,-21.301
0.705,-0.121,-0.086,-39.734,15.625,-17.151
0.714,-0.078,-0.090,-32.349,10.254,-13.123
0.728,-0.035,-0.084,-27.832,5.188,-9.766
0.755,0.006,-0.059,-25.513,1.892,-6.958
0.771,0.047,-0.053,-23.254,0.244,-4.517
0.785,0.082,-0.042,-19.592,-0.916,-3.418
0.804,0.112,-0.029,-16.602,-1.099,-2.380
0.826,0.151,-0.023,-17.456,-0.732,-0.366
0.837,0.171,-0.022,-21.362,-0.610,3.540
0.846,0.187,-0.028,-23.560,0.000,6.592
0.849,0.216,-0.036,-20.996,0.793,7.385
0.844,0.208,-0.052,-15.991,1.038,6.104
0.850,0.229,-0.060,-11.230,1.892,4.761
0.845,0.229,-0.068,-7.996,1.953,4.089
0.850,0.240,-0.058,-7.019,0.061,4.578
0.860,0.266,-0.036,-7.019,-1.709,5.615
0.874,0.254,-0.043,-5.310,-3.479,5.188
0.891,0.271,-0.031,-4.028,-2.563,4.822
0.904,0.280,-0.029,-4.944,-1.465,5.554
0.900,0.283,-0.023,-7.812,-1.709,7.935
0.891,0.291,-0.023,-10.925,-1.953,10.437
0.883,0.305,-0.023,-11.353,-1.892,11.414
0.870,0.327,-0.037,-9.277,-1.892,10.986
0.872,0.341,-0.042,-5.432,-2.136,8.850
0.882,0.345,-0.036,-2.075,-2.197,6.104
0.897,0.340,-0.032,0.122,-2.075,4.395
0.905,0.336,-0.033,0.305,-1.526,3.723
0.901,0.337,-0.034,-0.183,-1.404,4.150
0.895,0.347,-0.021,-0.610,-1.526,4.395
0.896,0.352,-0.012,-0.671,-1.465,4.211
0.900,0.346,-0.020,-1.404,-0.549,4.150
0.901,0.337,-0.041,-1.831,0.427,4.395
0.898,0.345,-0.058,-1.648,0.610,4.761
0.900,0.353,-0.065,-1.465,0.122,5.127
0.905,0.353,-0.062,-1.038,-0.488,4.883
0.900,0.359,-0.062,0.549,-1.099,4.883
0.896,0.376,-0.056,2.686,-1.831,4.639
0.887,0.405,-0.040,4.211,-2.808,4.089
0.888,0.429,-0.017,4.456,-3.357,2.869
0.894,0.433,0.001,3.967,-2.441,0.977
0.899,0.422,0.000,3.845,-0.488,-1.160
0.898,0.401,-0.022,3.662,0.977,-2.441
0.896,0.371,-0.055,3.113,1.709,-2.808
0.895,0.350,-0.075,3.235,1.465,-2.808
0.892,0.340,-0.075,3.418,0.244,-2.075
0.892,0.341,-0.063,2.869,-1.038,-0.916
0.891,0.342,-0.056,2.686,-1.648,0.305
0.893,0.350,-0.054,2.502,-1.953,1.160
0.894,0.361,-0.053,2.502,-2.258,2.136
0.896,0.380,-0.044,2.625,-2.869,2.563
0.897,0.387,-0.034,1.953,-2.686,2.686
0.903,0.387,-0.030,1.831,-1.953,2.380
0.898,0.394,-0.034,2.197,-1.709,2.197
0.895,0.403,-0.037,2.686,-1.831,2.075
0.889,0.407,-0.036,2.991,-2.380,1.648
0.894,0.408,-0.033,3.235,-2.930,1.099
0.896,0.411,-0.017,3.418,-2.991,0.610
0.895,0.402,-0.012,2.258,-2.380,-0.122
0.909,0.376,-0.019,1.465,-1.099,-0.977
0.909,0.370,-0.031,1.892,-0.671,-0.977
0.900,0.386,-0.038,2.380,-1.160,-0.488
0.896,0.401,-0.034,2.258,-2.441,-0.183
0.896,0.402,-0.029,1.038,-3.418,-0.366
0.896,0.394,-0.026,0.732,-3.235,-1.099
0.895,0.383,-0.030,2.625,-2.808,-2.380
0.895,0.365,-0.039,5.005,-2.136,-3.235
0.894,0.355,-0.043,6.409,-2.258,-3.418
0.894,0.350,-0.037,5.798,-3.174,-2.625

0.629,1.444,0.572,61.584,-44.006,57.129
0.717,1.574,0.600,54.260,-50.415,55.176
0.807,1.745,0.699,42.847,-53.833,55.847
0.830,1.926,0.782,31.921,-57.068,57.739
0.846,2.246,0.844,19.775,-56.458,55.908
0.932,2.559,0.997,8.057,-54.077,45.715
0.930,2.839,1.046,-6.775,-49.988,32.715
0.949,2.997,1.081,-21.912,-36.255,12.329
0.937,2.996,1.049,-34.302,-24.231,-12.024
0.910,2.919,0.989,-45.227,-10.071,-37.964
0.872,2.784,0.946,-54.871,2.197,-62.500
0.833,2.652,0.912,-67.139,10.010,-82.214
0.768,2.526,0.889,-83.191,13.245,-97.168
0.716,2.355,0.878,-100.647,16.602,-112.061
0.675,2.138,0.844,-116.211,20.874,-127.075
0.573,1.894,0.782,-126.343,25.513,-142.029
0.536,1.619,0.739,-132.690,31.067,-156.189
0.463,1.301,0.695,-139.832,34.729,-166.626
0.433,0.986,0.656,-144.409,37.964,-174.500
0.403,0.687,0.595,-144.897,42.175,-177.490
0.402,0.418,0.548,-139.771,46.326,-177.979
0.369,0.193,0.463,-130.737,49.622,-176.697
0.411,0.021,0.401,-122.009,54.077,-173.157
0.413,-0.113,0.293,-117.615,57.861,-165.100
0.446,-0.210,0.199,-114.807,55.542,-153.076
0.445,-0.241,0.141,-113.159,51.086,-138.977
0.443,-0.262,0.107,-114.258,44.312,-124.756
0.452,-0.267,0.109,-116.455,34.973,-110.535
0.471,-0.263,0.118,-116.150,28.076,-98.633
0.516,-0.253,0.120,-109.619,24.841,-90.515
0.527,-0.242,0.092,-97.290,23.132,-84.045
0.532,-0.223,0.077,-84.778,22.705,-79.041
0.542,-0.208,0.056,-76.416,23.499,-73.364
0.539,-0.197,0.033,-72.449,22.766,-66.284
0.546,-0.171,0.020,-69.092,21.179,-59.021
0.557,-0.125,0.012,-65.613,18.433,-52.124
0.563,-0.092,0.012,-62.866,14.648,-45.959
0.589,-0.088,0.010,-59.204,11.658,-41.626
0.609,-0.081,0.006,-53.955,10.315,-37.415
0.620,-0.063,0.000,-49.561,10.071,-32.593
0.630,-0.051,-0.001,-45.715,8.118,-27.405
0.645,-0.025,0.008,-42.542,4.517,-21.973
0.650,0.005,0.007,-39.063,1.343,-17.090
0.669,0.043,0.002,-33.875,0.122,-14.526
0.704,0.078,-0.012,-26.917,0.427,-14.343
0.718,0.106,-0.033,-20.752,0.977,-13.977
0.737,0.129,-0.046,-17.639,0.977,-12.756
0.751,0.117,-0.057,-17.395,-0.793,-9.338
0.748,0.147,-0.074,-20.264,-2.441,-4.700
0.756,0.192,-0.084,-23.804,-3.052,-0.732
0.754,0.222,-0.103,-23.987,-5.310,1.953
0.773,0.241,-0.103,-22.583,-6.653,2.991
0.784,0.252,-0.101,-20.691,-7.874,3.540
0.794,0.253,-0.093,-16.479,-8.667,3.418
0.798,0.279,-0.086,-10.803,-8.728,2.563
0.795,0.312,-0.081,-4.822,-9.033,0.916
0.797,0.346,-0.063,-0.244,-8.545,-1.038
0.814,0.355,-0.051,2.747,-7.385,-3.113
0.850,0.345,-0.034,1.526,-6.104,-3.601
0.870,0.343,-0.027,-2.747,-6.042,-1.465
0.864,0.340,-0.029,-5.981,-6.287,1.404
0.866,0.334,-0.040,-6.348,-4.944,2.502
0.865,0.344,-0.060,-4.761,-3.235,3.113
0.866,0.361,-0.081,-2.808,-2.380,3.418
0.878,0.384,-0.091,-0.671,-2.014,3.662
0.885,0.410,-0.086,1.099,-2.197,3.967
0.886,0.426,-0.089,2.502,-1.831,3.723
0.884,0.443,-0.094,4.822,-1.648,2.747
0.868,0.465,-0.098,7.141,-1.404,1.526
0.861,0.473,-0.090,8.423,-1.587,-0.244
0.877,0.462,-0.071,6.165,-1.709,-0.366
0.881,0.450,-0.069,0.000,-1.892,2.075
0.886,0.437,-0.075,-5.371,-1.709,4.761
0.888,0.430,-0.085,-6.409,-0.671,5.554
0.875,0.445,-0.098,-4.028,-0.122,5.249
0.862,0.465,-0.104,-0.122,-0.793,3.784
0.860,0.473,-0.097,2.197,-1.587,2.014
0.863,0.474,-0.088,3.418,-2.563,0.854
0.859,0.471,-0.083,4.578,-3.174,-0.183
0.863,0.482,-0.071,6.165,-3.296,-1.038
0.859,0.493,-0.062,7.019,-3.113,-2.136
0.859,0.502,-0.062,7.690,-2.380,-3.113
0.871,0.495,-0.063,7.446,-1.892,-4.150
0.889,0.473,-0.069,5.798,-1.343,-4.456
0.893,0.465,-0.069,3.479,-1.160,-3.540
0.885,0.461,-0.065,1.709,-1.709,-2.747
0.876,0.457,-0.061,0.732,-2.014,-2.136
0.873,0.450,-0.060,1.648,-1.526,-2.197
0.868,0.445,-0.064,3.296,-1.282,-2.197
0.870,0.445,-0.063,3.906,-1.404,-1.892
0.881,0.448,-0.054,3.784,-1.831,-1.526
0.884,0.446,-0.044,3.052,-2.014,-0.977
0.890,0.448,-0.043,3.052,-1.587,-0.427
0.887,0.459,-0.044,2.625,-0.916,0.122
0.880,0.467,-0.046,1.831,-0.122,0.671
0.887,0.462,-0.048,0.183,0.732,1.343
0.885,0.461,-0.055,-1.404,1.160,2.319
0.878,0.458,-0.065,-2.075,1.099,3.235
0.875,0.458,-0.075,-1.648,1.099,3.845
0.861,0.469,-0.079,-0.671,0.916,3.845
0.853,0.482,-0.073,0.305,0.061,3.418
0.855,0.479,-0.067,1.221,-0.183,2.380
0.853,0.466,-0.066,2.869,-0.244,1.282
0.853,0.462,-0.072,4.456,-0.244,0.305
0.851,0.471,-0.075,6.958,-0.977,-0.183
0.843,0.496,-0.064,7.812,-1.953,-0.549
0.852,0.500,-0.040,6.287,-2.319,-0.916
0.860,0.498,-0.025,2.563,-1.465,-0.183
0.869,0.494,-0.028,-0.916,-0.305,0.610
0.858,0.484,-0.044,-2.014,0.793,1.038
0.857,0.481,-0.050,-0.854,1.099,0.427
0.853,0.477,-0.050,0.244,1.831,-0.305
0.851,0.468,-0.062,0.366,2.563,-0.732
0.852,0.452,-0.076,-0.122,2.441,-0.671
0.849,0.442,-0.086,-0.366,2.014,-0.244
0.835,0.448,-0.090,0.671,0.916,0.488
0.831,0.452,-0.088,2.014,0.122,0.244
0.843,0.442,-0.088,3.296,-0.061,-0.916
0.853,0.435,-0.091,5.127,-0.549,-1.465

0.574,1.515,0.672,80.505,-58.655,61.218
0.760,1.656,0.704,76.355,-57.312,52.246
0.758,1.754,0.763,67.017,-60.547,45.471
0.814,1.870,0.818,53.894,-64.636,38.940
0.916,1.998,0.920,44.617,-63.965,29.236
0.974,2.117,1.032,35.583,-63.416,19.348
0.981,2.209,1.095,24.719,-59.570,10.132
1.014,2.279,1.167,14.038,-47.913,-2.686
0.993,2.231,1.191,2.197,-38.269,-15.320
1.003,2.210,1.202,-9.949,-25.513,-29.358
0.969,2.128,1.187,-22.095,-17.395,-39.612
0.922,2.042,1.149,-33.630,-5.859,-50.171
0.891,1.946,1.101,-44.556,5.676,-61.401
0.852,1.832,1.045,-56.274,15.503,-69.763
0.800,1.721,0.984,-69.519,22.888,-75.928
0.751,1.605,0.929,-81.238,29.236,-81.482
0.717,1.516,0.875,-90.881,34.729,-86.426
0.664,1.457,0.816,-98.083,38.757,-91.553
0.620,1.420,0.772,-103.699,42.114,-97.534
0.575,1.378,0.729,-109.558,44.312,-104.248
0.521,1.293,0.693,-114.990,45.898,-111.694
0.491,1.172,0.652,-117.249,47.241,-120.300
0.461,1.029,0.623,-116.821,49.500,-128.479
0.456,0.878,0.573,-116.577,53.528,-135.132
0.442,0.736,0.522,-118.652,56.152,-138.000
0.436,0.631,0.483,-122.131,57.251,-137.756
0.435,0.536,0.452,-125.610,56.885,-136.047
0.432,0.438,0.414,-127.747,56.213,-133.789
0.427,0.355,0.379,-126.221,57.434,-131.897
0.406,0.338,0.330,-122.070,58.228,-130.249
0.397,0.297,0.279,-118.286,57.312,-129.028
0.401,0.224,0.239,-115.662,57.495,-128.601
0.412,0.162,0.187,-113.403,58.350,-128.113
0.429,0.079,0.134,-109.741,57.739,-126.587
0.441,-0.005,0.071,-106.995,57.373,-122.131
0.457,-0.042,0.012,-107.910,56.213,-114.746
0.464,-0.042,-0.047,-110.352,52.490,-105.591
0.401,-0.079,-0.075,-111.938,45.593,-96.802
0.443,-0.099,-0.068,-109.314,34.363,-91.797
0.481,-0.181,-0.062,-99.182,26.367,-90.454
0.533,-0.241,-0.053,-83.923,21.729,-89.783
0.594,-0.279,-0.055,-69.275,21.057,-86.792
0.605,-0.332,-0.044,-60.852,21.667,-79.468
0.638,-0.371,-0.084,-57.678,22.095,-69.763
0.663,-0.375,-0.119,-57.068,23.804,-57.983
0.670,-0.373,-0.163,-56.213,22.034,-45.288
0.665,-0.341,-0.191,-54.565,18.372,-32.532
0.662,-0.275,-0.215,-51.392,10.986,-21.606
0.661,-0.225,-0.228,-47.485,3.113,-13.977
0.677,-0.181,-0.215,-41.443,-3.113,-8.728
0.698,-0.144,-0.204,-33.203,-8.667,-4.883
0.713,-0.089,-0.183,-23.804,-13.000,-2.869
0.732,-0.034,-0.150,-15.625,-16.785,-0.488
0.738,0.022,-0.113,-9.827,-18.799,2.502
0.771,0.067,-0.080,-5.859,-19.287,3.723
0.805,0.107,-0.054,-2.930,-17.883,5.005
0.828,0.136,-0.044,-2.625,-15.869,7.141
0.847,0.158,-0.046,-4.883,-14.038,10.193
0.847,0.172,-0.068,-8.850,-12.512,13.367
0.855,0.185,-0.082,-13.245,-11.475,16.602
0.857,0.215,-0.085,-15.564,-11.841,20.142
0.861,0.257,-0.074,-14.587,-12.939,22.461
0.864,0.305,-0.073,-10.925,-12.634,22.217
0.874,0.336,-0.069,-6.958,-11.658,19.714
0.895,0.351,-0.068,-3.113,-10.315,17.212
0.896,0.370,-0.066,-0.061,-8.972,15.442
0.889,0.414,-0.061,1.526,-8.423,14.282
0.902,0.439,-0.044,0.854,-7.263,12.939
0.911,0.449,-0.033,-0.793,-5.676,11.658
0.909,0.458,-0.038,-1.526,-4.089,10.376
0.899,0.457,-0.053,-0.549,-2.319,8.240
0.899,0.448,-0.069,0.610,-0.610,5.493
0.897,0.444,-0.081,1.770,0.549,3.601
0.888,0.449,-0.089,3.174,0.549,2.258
0.881,0.458,-0.091,4.456,-0.183,0.732
0.890,0.463,-0.089,5.432,-0.671,-1.587
0.908,0.446,-0.086,5.859,-0.244,-3.540
0.917,0.424,-0.089,5.920,0.671,-4.333
0.914,0.418,-0.104,6.653,1.038,-4.395
0.902,0.425,-0.109,7.263,0.732,-4.211
0.893,0.435,-0.094,6.165,-0.427,-3.906
0.898,0.448,-0.072,3.235,-1.587,-3.113
0.905,0.444,-0.065,-1.038,-1.282,-2.380
0.914,0.419,-0.070,-2.991,-0.122,-2.258
0.914,0.401,-0.087,-2.014,0.854,-2.380
0.906,0.390,-0.100,0.671,1.099,-2.441
0.904,0.394,-0.098,3.296,0.671,-2.258
0.900,0.410,-0.087,3.967,-0.244,-1.038
0.903,0.419,-0.078,2.197,-0.488,0.427
0.907,0.423,-0.073,0.244,-0.366,1.404
0.904,0.425,-0.079,0.000,-0.061,2.014
0.890,0.442,-0.088,1.587,0.061,1.404
0.890,0.445,-0.090,3.052,-0.488,-0.610
0.900,0.434,-0.083,2.502,-0.427,-1.404
0.899,0.422,-0.083,0.610,0.061,-1.343
0.900,0.414,-0.091,1.099,0.549,-1.343
0.893,0.415,-0.099,2.930,0.488,-1.526
0.889,0.408,-0.102,4.395,0.061,-2.014
0.898,0.403,-0.090,4.700,-0.671,-1.709
0.899,0.410,-0.075,2.625,-1.282,0.061
0.895,0.405,-0.067,-1.038,-0.916,2.258
0.893,0.393,-0.072,-2.930,0.122,3.662
0.887,0.394,-0.083,-1.709,0.793,4.028
0.876,0.411,-0.100,0.977,1.282,3.723
0.865,0.418,-0.094,2.869,0.183,3.174
0.875,0.426,-0.079,2.014,-0.854,2.808
0.874,0.419,-0.071,-0.122,-1.038,3.296
0.877,0.412,-0.072,-1.038,-0.183,3.418
0.871,0.416,-0.084,0.183,0.427,3.235
0.868,0.427,-0.101,2.441,0.549,2.686
0.856,0.412,-0.098,4.028,-0.183,2.441
0.867,0.435,-0.091,3.601,-1.282,2.258
0.870,0.424,-0.075,1.648,-1.343,2.319
0.871,0.409,-0.082,0.244,-0.488,2.441
0.873,0.410,-0.097,0.977,0.366,2.380
0.867,0.418,-0.111,2.686,0.122,2.625
0.869,0.427,-0.112,2.869,-1.160,2.930
0.881,0.437,-0.098,1.526,-2.319,3.662
0.882,0.444,-0.084,-0.183,-2.197,4.211
